block,count_main_sequence,first_trial_timestamp,fname,response_catch_response,response_time_catch_response,subject_nr,time_stimulus,time_to_pad
P,NA,260647,vowelstep1_catch.wav,None,1000,10,260658,0
P,NA,260647,sinestep7_catch.wav,1,235,10,262659,448
P,NA,260647,vowelstep5_catch.wav,1,109,10,264659,1213
P,NA,260647,sinestep7.wav,1,200,10,266659,1350
P,NA,260647,sinestep7.wav,1,162,10,268659,1228
P,NA,260647,sinestep3.wav,1,254,10,270659,1277
P,NA,260647,sinestep1.wav,1,461,10,272659,1184
P,NA,260647,vowelstep7.wav,1,492,10,274658,986
P,NA,260647,vowelstep3.wav,1,463,10,276658,954
P,NA,260647,silence.wav,None,1000,10,278658,986
P,NA,260647,sinestep1.wav,1,253,10,280659,449
P,NA,260647,vowelstep1.wav,1,287,10,282659,1184
P,NA,260647,sinestep5.wav,1,305,10,284659,1151
P,NA,260647,sinestep1.wav,1,410,10,286659,1133
P,NA,260647,sinestep1.wav,1,201,10,288659,1028
P,NA,260647,vowelstep1.wav,1,331,10,290659,1246
P,NA,260647,silence.wav,None,1000,10,292659,1117
P,NA,260647,silence.wav,None,1000,10,294659,448
P,NA,260647,silence.wav,None,1000,10,296659,455
P,NA,260647,sinestep3_catch.wav,1,541,10,298660,438
P,NA,260647,vowelstep7.wav,1,336,10,300659,896
P,NA,260647,silence.wav,None,1000,10,302659,1100
P,NA,260647,vowelstep7.wav,1,138,10,304659,445
P,NA,260647,vowelstep3.wav,1,353,10,306659,1308
P,NA,260647,silence.wav,None,1000,10,308659,1093
P,NA,260647,vowelstep1.wav,1,296,10,310659,427
P,NA,260647,sinestep3.wav,1,304,10,312659,1140
P,NA,260647,vowelstep1.wav,1,355,10,314660,1133
P,NA,260647,silence.wav,None,1000,10,316660,1080
P,NA,260647,sinestep7.wav,1,203,10,318660,445
P,NA,260647,sinestep5_catch.wav,1,451,10,320660,1242
P,NA,260647,silence.wav,None,1000,10,322660,994
P,NA,260647,sinestep7.wav,1,254,10,324659,455
P,NA,260647,sinestep5.wav,1,445,10,326659,1181
P,NA,260647,sinestep3.wav,1,929,10,328659,991
P,NA,260647,sinestep1_catch.wav,1,930,10,330659,507
P,NA,260647,vowelstep3_catch.wav,1,288,10,332660,515
P,NA,260647,vowelstep5_catch.wav,1,88,10,334660,1156
P,NA,260647,vowelstep7.wav,1,137,10,336660,1357
P,NA,260647,silence.wav,None,1000,10,338660,1287
P,NA,260647,vowelstep7_catch.wav,1,159,10,340660,435
P,NA,260647,vowelstep3.wav,1,227,10,342660,1275
P,NA,260647,silence.wav,None,1000,10,344660,1207
P,NA,260647,sinestep7_catch.wav,1,319,10,346660,445
P,NA,260647,sinestep7.wav,1,174,10,348659,1125
P,NA,260647,vowelstep5.wav,1,278,10,350660,1270
P,NA,260647,vowelstep3.wav,1,160,10,352660,1174
P,NA,260647,sinestep5.wav,1,116,10,354660,1273
P,NA,260647,sinestep5_catch.wav,1,60,10,356660,1317
P,NA,260647,sinestep3.wav,1,55,10,358660,1370
P,NA,260647,silence.wav,None,1000,10,360660,1388
P,NA,260647,vowelstep7.wav,1,133,10,362660,445
P,NA,260647,sinestep3_catch.wav,1,71,10,364660,1310
P,NA,260647,vowelstep5.wav,1,45,10,366660,1382
P,NA,260647,silence.wav,None,1000,10,368661,1407
P,NA,260647,sinestep1.wav,1,59,10,370661,433
P,NA,260647,vowelstep1.wav,1,192,10,372660,1373
P,NA,260647,silence.wav,None,1000,10,374660,1240
P,NA,260647,silence.wav,None,1000,10,376660,443
P,NA,260647,silence.wav,None,1000,10,378660,442
P,NA,260647,sinestep1_catch.wav,None,1000,10,380660,443
P,NA,260647,sinestep1.wav,1,94,10,382660,422
P,NA,260647,silence.wav,None,1000,10,384661,1338
P,NA,260647,vowelstep1_catch.wav,1,69,10,386661,432
P,NA,260647,vowelstep5.wav,1,74,10,388661,1361
P,NA,260647,sinestep5.wav,1,128,10,390661,1367
P,NA,260647,vowelstep3.wav,1,195,10,392661,1313
P,NA,260647,silence.wav,None,1000,10,394661,1247
P,NA,260647,silence.wav,None,1000,10,396660,451
P,NA,260647,sinestep7.wav,1,195,10,398660,432
P,NA,260647,vowelstep5.wav,1,276,10,400660,1237
P,NA,260647,silence.wav,None,1000,10,402661,1155
P,NA,260647,vowelstep3_catch.wav,1,47,10,404661,440
P,NA,260647,silence.wav,None,1000,10,406661,1394
P,NA,260647,vowelstep5.wav,1,687,10,408661,450
P,NA,260647,vowelstep5_catch.wav,1,256,10,410661,733
P,NA,260647,vowelstep7_catch.wav,1,192,10,412661,1173
P,NA,260647,sinestep3.wav,1,534,10,414661,1237
P,NA,260647,vowelstep5.wav,1,661,10,416661,896
P,NA,260647,vowelstep3.wav,1,312,10,418661,779
P,NA,260647,silence.wav,None,1000,10,420661,1128
P,NA,260647,sinestep3.wav,1,172,10,422661,440
P,NA,260647,silence.wav,None,1000,10,424661,1277
P,NA,260647,sinestep7_catch.wav,1,183,10,426661,429
P,NA,260647,sinestep5_catch.wav,1,160,10,428661,1246
P,NA,260647,sinestep5.wav,1,98,10,430661,1269
P,NA,260647,sinestep5.wav,1,133,10,432661,1341
P,NA,260647,vowelstep7.wav,1,141,10,434661,1305
P,NA,260647,sinestep3_catch.wav,1,195,10,436662,1298
P,NA,260647,vowelstep1.wav,1,261,10,438662,1253
E,0,50344,vowelstep7.wav,None,1000,105,50352,0
E,0,50344,sinestep3.wav,None,1000,105,52353,336
E,0,50344,sinestep5.wav,None,1000,105,54353,343
E,0,50344,sinestep1.wav,None,1000,105,56353,342
E,0,50344,sinestep5.wav,None,1000,105,58353,354
E,0,50344,silence.wav,None,1000,105,60353,331
E,0,50344,vowelstep1.wav,None,1000,105,62353,333
E,0,50344,vowelstep7.wav,None,1000,105,64353,334
E,0,50344,vowelstep1.wav,None,1000,105,66353,334
E,0,50344,sinestep1_catch.wav,1,179,105,68353,344
E,0,50344,vowelstep5.wav,None,1000,105,70354,1164
E,0,50344,sinestep5.wav,None,1000,105,72353,352
E,0,50344,vowelstep5.wav,None,1000,105,74353,343
E,0,50344,vowelstep3.wav,None,1000,105,76353,351
E,0,50344,sinestep1.wav,None,1000,105,78353,353
E,0,50344,vowelstep5.wav,None,1000,105,80353,344
E,0,50344,silence.wav,None,1000,105,82353,343
E,0,50344,silence.wav,None,1000,105,84353,344
E,0,50344,sinestep3.wav,None,1000,105,86353,353
E,0,50344,sinestep3.wav,None,1000,105,88354,352
E,0,50344,sinestep3.wav,None,1000,105,90354,352
E,0,50344,sinestep1.wav,None,1000,105,92354,348
E,0,50344,vowelstep1.wav,None,1000,105,94354,342
E,0,50344,sinestep1.wav,None,1000,105,96353,325
E,0,50344,vowelstep7.wav,None,1000,105,98353,342
E,0,50344,vowelstep5.wav,None,1000,105,100353,337
E,0,50344,sinestep7.wav,None,1000,105,102353,352
E,0,50344,sinestep1.wav,None,1000,105,104353,351
E,0,50344,vowelstep5.wav,None,1000,105,106354,350
E,0,50344,sinestep3.wav,None,1000,105,108354,338
E,0,50344,vowelstep1.wav,None,1000,105,110354,341
E,0,50344,vowelstep5.wav,None,1000,105,112354,340
E,0,50344,vowelstep3.wav,None,1000,105,114354,351
E,0,50344,sinestep1.wav,None,1000,105,116354,350
E,0,50344,vowelstep3.wav,None,1000,105,118354,350
E,0,50344,silence.wav,None,1000,105,120353,345
E,0,50344,vowelstep3.wav,None,1000,105,122354,339
E,0,50344,sinestep3_catch.wav,1,133,105,124354,339
E,0,50344,sinestep3.wav,None,1000,105,126354,1205
E,0,50344,vowelstep3.wav,None,1000,105,128354,340
E,0,50344,vowelstep7.wav,None,1000,105,130354,350
E,0,50344,silence.wav,None,1000,105,132354,349
E,0,50344,sinestep3.wav,None,1000,105,134354,349
E,0,50344,silence.wav,None,1000,105,136354,331
E,0,50344,sinestep1.wav,None,1000,105,138354,339
E,0,50344,sinestep5_catch.wav,1,266,105,140355,340
E,0,50344,vowelstep3.wav,None,1000,105,142355,1071
E,0,50344,sinestep5.wav,None,1000,105,144355,349
E,0,50344,vowelstep7.wav,None,1000,105,146354,349
E,0,50344,sinestep1.wav,None,1000,105,148354,349
E,0,50344,sinestep5.wav,None,1000,105,150354,328
E,0,50344,sinestep5.wav,None,1000,105,152354,338
E,0,50344,vowelstep7.wav,None,1000,105,154354,338
E,0,50344,vowelstep3.wav,None,1000,105,156354,336
E,0,50344,vowelstep7.wav,None,1000,105,158355,348
E,0,50344,sinestep5.wav,None,1000,105,160355,348
E,0,50344,vowelstep3.wav,None,1000,105,162355,347
E,0,50344,vowelstep7.wav,None,1000,105,164355,357
E,0,50344,sinestep3.wav,None,1000,105,166355,335
E,0,50344,vowelstep7.wav,None,1000,105,168354,337
E,0,50344,silence.wav,None,1000,105,170354,334
E,0,50344,silence.wav,None,1000,105,172354,348
E,0,50344,sinestep7.wav,None,1000,105,174354,347
E,0,50344,sinestep7_catch.wav,None,1000,105,176355,347
E,0,50344,sinestep7.wav,None,1000,105,178355,357
E,0,50344,silence.wav,None,1000,105,180355,322
E,0,50344,sinestep7_catch.wav,1,165,105,182355,337
E,0,50344,sinestep7.wav,None,1000,105,184355,1170
E,0,50344,sinestep5_catch.wav,1,10,105,186355,347
E,0,50344,sinestep1.wav,None,1000,105,188355,1334
E,0,50344,sinestep1.wav,None,1000,105,190355,346
E,0,50344,sinestep1.wav,None,1000,105,192356,314
E,0,50344,sinestep3.wav,None,1000,105,194355,331
E,0,50344,vowelstep5.wav,None,1000,105,196355,336
E,0,50344,silence.wav,None,1000,105,198355,336
E,0,50344,sinestep3_catch.wav,1,308,105,200355,345
E,0,50344,silence.wav,None,1000,105,202355,1037
E,0,50344,sinestep7.wav,None,1000,105,204355,346
E,0,50344,sinestep5.wav,None,1000,105,206355,356
E,0,50344,silence.wav,None,1000,105,208355,334
E,0,50344,vowelstep5.wav,None,1000,105,210356,335
E,0,50344,vowelstep1.wav,None,1000,105,212356,335
E,0,50344,vowelstep3.wav,None,1000,105,214356,345
E,0,50344,sinestep5.wav,None,1000,105,216356,345
E,0,50344,sinestep7.wav,None,1000,105,218355,344
E,0,50344,vowelstep1.wav,None,1000,105,220355,343
E,0,50344,vowelstep7.wav,None,1000,105,222355,334
E,0,50344,sinestep3.wav,None,1000,105,224355,334
E,0,50344,silence.wav,None,1000,105,226355,334
E,0,50344,sinestep1_catch.wav,1,319,105,228356,333
E,0,50344,sinestep7.wav,None,1000,105,230356,1023
E,0,50344,vowelstep1.wav,None,1000,105,232356,344
E,0,50344,sinestep5.wav,None,1000,105,234356,343
E,0,50344,sinestep5.wav,None,1000,105,236356,353
E,0,50344,vowelstep1.wav,None,1000,105,238356,334
E,0,50344,sinestep7.wav,None,1000,105,240356,330
E,0,50344,sinestep3.wav,None,1000,105,242355,333
E,0,50344,sinestep7.wav,None,1000,105,244356,344
E,0,50344,silence.wav,None,1000,105,246356,342
E,0,50344,vowelstep1.wav,None,1000,105,248356,352
E,0,50344,sinestep1.wav,None,1000,105,250356,323
E,0,50344,vowelstep1.wav,None,1000,105,252356,331
E,0,50344,vowelstep1.wav,None,1000,105,254356,330
E,0,50344,vowelstep1_catch.wav,1,166,105,256356,332
E,0,50344,vowelstep1.wav,None,1000,105,258356,1177
E,0,50344,vowelstep1.wav,None,1000,105,260356,342
E,0,50344,silence.wav,None,1000,105,262357,341
E,0,50344,sinestep7.wav,None,1000,105,264357,351
E,0,50344,vowelstep7.wav,None,1000,105,266356,331
E,0,50344,vowelstep3_catch.wav,1,198,105,268356,332
E,0,50344,vowelstep5.wav,None,1000,105,270356,1131
E,0,50344,sinestep3.wav,None,1000,105,272356,342
E,0,50344,silence.wav,None,1000,105,274356,342
E,0,50344,sinestep1.wav,None,1000,105,276356,342
E,0,50344,sinestep5.wav,None,1000,105,278356,322
E,0,50344,sinestep5.wav,None,1000,105,280357,331
E,0,50344,sinestep3.wav,None,1000,105,282357,329
E,0,50344,sinestep5.wav,None,1000,105,284357,329
E,0,50344,vowelstep3.wav,None,1000,105,286357,340
E,0,50344,sinestep7.wav,None,1000,105,288357,341
E,0,50344,sinestep7.wav,None,1000,105,290356,340
E,0,50344,silence.wav,None,1000,105,292356,350
E,0,50344,sinestep3.wav,None,1000,105,294356,329
E,0,50344,sinestep3.wav,None,1000,105,296356,330
E,0,50344,vowelstep3.wav,None,1000,105,298357,329
E,0,50344,silence.wav,None,1000,105,300357,339
E,0,50344,sinestep7.wav,None,1000,105,302357,339
E,0,50344,silence.wav,None,1000,105,304357,340
E,0,50344,vowelstep7.wav,None,1000,105,306357,350
E,0,50344,vowelstep3.wav,None,1000,105,308357,350
E,0,50344,silence.wav,None,1000,105,310357,330
E,0,50344,vowelstep3.wav,None,1000,105,312357,329
E,0,50344,vowelstep1.wav,None,1000,105,314357,339
E,0,50344,vowelstep5.wav,None,1000,105,316357,337
E,0,50344,silence.wav,None,1000,105,318357,338
E,0,50344,vowelstep3.wav,None,1000,105,320357,310
E,0,50344,sinestep1.wav,None,1000,105,322357,349
E,0,50344,vowelstep5_catch.wav,1,311,105,324357,349
E,0,50344,sinestep7.wav,None,1000,105,326357,1037
E,0,50344,sinestep7.wav,None,1000,105,328357,339
E,0,50344,vowelstep7.wav,None,1000,105,330357,338
E,0,50344,silence.wav,None,1000,105,332358,338
E,0,50344,sinestep5.wav,None,1000,105,334358,320
E,0,50344,silence.wav,None,1000,105,336358,347
E,0,50344,silence.wav,None,1000,105,338357,347
E,0,50344,vowelstep5.wav,None,1000,105,340357,358
E,0,50344,vowelstep5.wav,None,1000,105,342357,339
E,0,50344,silence.wav,None,1000,105,344357,337
E,0,50344,vowelstep5.wav,None,1000,105,346357,337
E,0,50344,vowelstep7_catch.wav,1,202,105,348357,334
E,0,50344,vowelstep7_catch.wav,1,151,105,350358,1145
E,0,50344,vowelstep5.wav,None,1000,105,352358,1195
E,0,50344,sinestep1.wav,None,1000,105,354358,344
E,0,50344,vowelstep3.wav,None,1000,105,356358,317
E,0,50344,vowelstep5_catch.wav,1,165,105,358358,335
E,0,50344,vowelstep7.wav,None,1000,105,360358,1171
E,0,50344,vowelstep5.wav,None,1000,105,362357,336
E,0,50344,vowelstep7.wav,None,1000,105,364357,346
E,0,50344,vowelstep1.wav,None,1000,105,366357,319
E,0,50344,vowelstep3_catch.wav,1,192,105,368358,355
D,1,1273927,sinestep5.wav,None,1000,10,1273941,0
D,1,1273927,vowelstep1_catch.wav,1,189,10,1275942,343
D,1,1273927,sinestep7.wav,None,1000,10,1277942,1153
D,1,1273927,vowelstep3.wav,None,1000,10,1279942,342
D,1,1273927,vowelstep3_catch.wav,1,7,10,1281942,343
D,1,1273927,vowelstep5_catch.wav,1,128,10,1283942,1325
D,1,1273927,sinestep7.wav,None,1000,10,1285942,1203
D,1,1273927,silence.wav,None,1000,10,1287941,332
D,1,1273927,vowelstep7_catch.wav,1,12,10,1289941,332
D,1,1273927,vowelstep7.wav,None,1000,10,1291941,1330
D,1,1273927,vowelstep3.wav,None,1000,10,1293942,342
D,1,1273927,vowelstep7_catch.wav,1,18,10,1295942,341
D,1,1273927,vowelstep5.wav,None,1000,10,1297942,1304
D,1,1273927,sinestep7.wav,None,1000,10,1299942,331
D,1,1273927,silence.wav,None,1000,10,1301942,331
D,1,1273927,vowelstep1.wav,1,26,10,1303942,341
D,1,1273927,vowelstep1.wav,None,1000,10,1305942,1314
D,1,1273927,vowelstep7.wav,None,1000,10,1307942,341
D,1,1273927,vowelstep3.wav,None,1000,10,1309942,341
D,1,1273927,sinestep3.wav,None,1000,10,1311942,331
D,1,1273927,sinestep1.wav,None,1000,10,1313942,330
D,1,1273927,vowelstep1.wav,None,1000,10,1315942,330
D,1,1273927,vowelstep1.wav,None,1000,10,1317942,331
D,1,1273927,sinestep7.wav,None,1000,10,1319942,341
D,1,1273927,sinestep3.wav,None,1000,10,1321942,341
D,1,1273927,vowelstep5_catch.wav,1,72,10,1323942,340
D,1,1273927,sinestep7.wav,None,1000,10,1325942,1278
D,1,1273927,vowelstep5.wav,None,1000,10,1327942,331
D,1,1273927,sinestep3.wav,None,1000,10,1329943,329
D,1,1273927,sinestep7.wav,None,1000,10,1331943,329
D,1,1273927,vowelstep3.wav,None,1000,10,1333943,341
D,1,1273927,vowelstep3.wav,None,1000,10,1335942,339
D,1,1273927,vowelstep3_catch.wav,None,1000,10,1337942,339
D,1,1273927,silence.wav,None,1000,10,1339942,319
D,1,1273927,vowelstep7.wav,None,1000,10,1341942,329
D,1,1273927,silence.wav,None,1000,10,1343942,330
D,1,1273927,sinestep1.wav,None,1000,10,1345943,329
D,1,1273927,vowelstep5.wav,None,1000,10,1347943,338
D,1,1273927,vowelstep1.wav,None,1000,10,1349943,338
D,1,1273927,sinestep7.wav,None,1000,10,1351943,338
D,1,1273927,vowelstep1.wav,None,1000,10,1353943,349
D,1,1273927,sinestep7.wav,None,1000,10,1355943,328
D,1,1273927,vowelstep7.wav,None,1000,10,1357943,328
D,1,1273927,vowelstep5.wav,None,1000,10,1359942,328
D,1,1273927,vowelstep1.wav,None,1000,10,1361942,338
D,1,1273927,sinestep5.wav,None,1000,10,1363943,338
D,1,1273927,sinestep5.wav,None,1000,10,1365943,337
D,1,1273927,vowelstep3.wav,None,1000,10,1367943,347
D,1,1273927,silence.wav,None,1000,10,1369943,327
D,1,1273927,sinestep1.wav,None,1000,10,1371943,327
D,1,1273927,sinestep1.wav,None,1000,10,1373943,327
D,1,1273927,sinestep3.wav,None,1000,10,1375943,337
D,1,1273927,vowelstep1.wav,None,1000,10,1377943,337
D,1,1273927,sinestep7.wav,None,1000,10,1379943,337
D,1,1273927,vowelstep3.wav,None,1000,10,1381944,337
D,1,1273927,silence.wav,None,1000,10,1383943,327
D,1,1273927,vowelstep5.wav,None,1000,10,1385943,325
D,1,1273927,vowelstep1.wav,None,1000,10,1387943,280
D,1,1273927,vowelstep1_catch.wav,1,158,10,1389943,336
D,1,1273927,vowelstep7.wav,None,1000,10,1391943,1178
D,1,1273927,sinestep5.wav,None,1000,10,1393943,337
D,1,1273927,vowelstep7.wav,None,1000,10,1395943,347
D,1,1273927,sinestep1.wav,None,1000,10,1397943,326
D,1,1273927,sinestep1.wav,None,1000,10,1399944,325
D,1,1273927,vowelstep3.wav,None,1000,10,1401944,325
D,1,1273927,sinestep1.wav,None,1000,10,1403944,326
D,1,1273927,silence.wav,None,1000,10,1405944,335
D,1,1273927,sinestep3.wav,None,1000,10,1407943,335
D,1,1273927,silence.wav,None,1000,10,1409943,335
D,1,1273927,vowelstep3.wav,None,1000,10,1411943,315
D,1,1273927,vowelstep5.wav,None,1000,10,1413943,325
D,1,1273927,silence.wav,None,1000,10,1415944,326
D,1,1273927,sinestep5.wav,None,1000,10,1417944,324
D,1,1273927,sinestep5.wav,None,1000,10,1419944,334
D,1,1273927,sinestep1.wav,None,1000,10,1421944,334
D,1,1273927,vowelstep5.wav,None,1000,10,1423944,333
D,1,1273927,vowelstep5.wav,None,1000,10,1425944,344
D,1,1273927,sinestep1_catch.wav,1,214,10,1427944,325
D,1,1273927,sinestep5.wav,None,1000,10,1429944,1111
D,1,1273927,vowelstep3.wav,None,1000,10,1431943,324
D,1,1273927,vowelstep7.wav,None,1000,10,1433944,334
D,1,1273927,vowelstep3.wav,None,1000,10,1435944,333
D,1,1273927,sinestep3.wav,None,1000,10,1437944,332
D,1,1273927,sinestep1.wav,None,1000,10,1439944,314
D,1,1273927,silence.wav,None,1000,10,1441944,321
D,1,1273927,sinestep1.wav,1,15,10,1443944,323
D,1,1273927,vowelstep1.wav,None,1000,10,1445944,1308
D,1,1273927,vowelstep3.wav,None,1000,10,1447944,330
D,1,1273927,silence.wav,None,1000,10,1449944,333
D,1,1273927,sinestep7.wav,1,347,10,1451945,333
D,1,1273927,silence.wav,None,1000,10,1453945,994
D,1,1273927,vowelstep7.wav,None,1000,10,1455945,322
D,1,1273927,sinestep3.wav,None,1000,10,1457944,342
D,1,1273927,vowelstep1.wav,None,1000,10,1459944,322
D,1,1273927,sinestep7.wav,None,1000,10,1461944,332
D,1,1273927,silence.wav,None,1000,10,1463944,332
D,1,1273927,sinestep1.wav,None,1000,10,1465944,332
D,1,1273927,sinestep3.wav,None,1000,10,1467944,342
D,1,1273927,sinestep5.wav,None,1000,10,1469945,320
D,1,1273927,vowelstep3.wav,None,1000,10,1471945,321
D,1,1273927,sinestep5.wav,None,1000,10,1473945,321
D,1,1273927,sinestep5.wav,None,1000,10,1475945,331
D,1,1273927,sinestep3.wav,None,1000,10,1477945,331
D,1,1273927,sinestep3.wav,None,1000,10,1479945,331
D,1,1273927,sinestep5.wav,None,1000,10,1481944,340
D,1,1273927,sinestep3_catch.wav,1,347,10,1483944,341
D,1,1273927,vowelstep7.wav,None,1000,10,1485945,993
D,1,1273927,sinestep1.wav,None,1000,10,1487945,339
D,1,1273927,sinestep7.wav,None,1000,10,1489945,330
D,1,1273927,vowelstep1.wav,None,1000,10,1491945,331
D,1,1273927,sinestep5.wav,None,1000,10,1493945,330
D,1,1273927,silence.wav,None,1000,10,1495945,340
D,1,1273927,sinestep5_catch.wav,1,164,10,1497945,340
D,1,1273927,sinestep5.wav,None,1000,10,1499945,1176
D,1,1273927,silence.wav,None,1000,10,1501945,348
D,1,1273927,vowelstep7.wav,None,1000,10,1503946,330
D,1,1273927,sinestep3.wav,None,1000,10,1505945,328
D,1,1273927,vowelstep5.wav,None,1000,10,1507945,329
D,1,1273927,vowelstep7.wav,None,1000,10,1509945,339
D,1,1273927,vowelstep5.wav,None,1000,10,1511945,336
D,1,1273927,silence.wav,None,1000,10,1513945,346
D,1,1273927,silence.wav,None,1000,10,1515945,346
D,1,1273927,silence.wav,None,1000,10,1517945,325
D,1,1273927,sinestep7.wav,None,1000,10,1519945,325
D,1,1273927,sinestep5.wav,None,1000,10,1521946,336
D,1,1273927,sinestep7_catch.wav,1,475,10,1523946,335
D,1,1273927,vowelstep1.wav,None,1000,10,1525946,859
D,1,1273927,vowelstep1.wav,None,1000,10,1527946,335
D,1,1273927,vowelstep3.wav,None,1000,10,1529945,344
D,1,1273927,silence.wav,None,1000,10,1531945,320
D,1,1273927,sinestep5.wav,None,1000,10,1533945,324
D,1,1273927,vowelstep7.wav,None,1000,10,1535945,324
D,1,1273927,vowelstep3.wav,None,1000,10,1537945,334
D,1,1273927,vowelstep7.wav,None,1000,10,1539946,334
D,1,1273927,vowelstep5.wav,None,1000,10,1541946,334
D,1,1273927,sinestep1.wav,None,1000,10,1543946,314
D,1,1273927,sinestep7.wav,None,1000,10,1545946,314
D,1,1273927,sinestep3.wav,None,1000,10,1547946,325
D,1,1273927,silence.wav,None,1000,10,1549946,333
D,1,1273927,sinestep7.wav,None,1000,10,1551946,334
D,1,1273927,vowelstep5.wav,None,1000,10,1553945,333
D,1,1273927,sinestep1.wav,None,1000,10,1555930,334
D,1,1273927,vowelstep1.wav,None,1000,10,1557930,343
D,1,1273927,sinestep1.wav,None,1000,10,1559946,340
D,1,1273927,vowelstep5.wav,None,1000,10,1561946,324
D,1,1273927,silence.wav,None,1000,10,1563946,323
D,1,1273927,sinestep3.wav,None,1000,10,1565946,332
D,1,1273927,vowelstep5.wav,None,1000,10,1567946,333
D,1,1273927,silence.wav,None,1000,10,1569946,333
D,1,1273927,sinestep3.wav,None,1000,10,1571946,313
D,1,1273927,vowelstep7.wav,None,1000,10,1573930,323
D,1,1273927,sinestep7_catch.wav,1,360,10,1575930,342
D,1,1273927,sinestep5_catch.wav,1,254,10,1577946,993
D,1,1273927,sinestep3.wav,None,1000,10,1579946,1077
D,1,1273927,vowelstep5.wav,None,1000,10,1581946,333
D,1,1273927,silence.wav,None,1000,10,1583946,331
D,1,1273927,sinestep3_catch.wav,1,190,10,1585946,342
D,1,1273927,silence.wav,None,1000,10,1587946,1131
D,1,1273927,vowelstep7.wav,None,1000,10,1589946,322
D,1,1273927,silence.wav,None,1000,10,1591930,323
A,2,1651182,sinestep5_catch.wav,1,762,10,1651197,0
A,2,1651182,vowelstep1.wav,None,1000,10,1653197,586
A,2,1651182,vowelstep3.wav,None,1000,10,1655197,320
A,2,1651182,sinestep1.wav,None,1000,10,1657197,334
A,2,1651182,sinestep5_catch.wav,1,189,10,1659197,331
A,2,1651182,sinestep7.wav,None,1000,10,1661198,1153
A,2,1651182,sinestep3.wav,None,1000,10,1663198,339
A,2,1651182,silence.wav,None,1000,10,1665198,342
A,2,1651182,vowelstep7.wav,None,1000,10,1667198,347
A,2,1651182,sinestep7.wav,None,1000,10,1669198,331
A,2,1651182,vowelstep5_catch.wav,1,212,10,1671198,330
A,2,1651182,sinestep7.wav,None,1000,10,1673198,1118
A,2,1651182,sinestep3.wav,None,1000,10,1675197,341
A,2,1651182,silence.wav,None,1000,10,1677197,342
A,2,1651182,sinestep3.wav,None,1000,10,1679198,341
A,2,1651182,sinestep5_catch.wav,1,161,10,1681198,350
A,2,1651182,sinestep1.wav,None,1000,10,1683198,1168
A,2,1651182,sinestep1.wav,None,1000,10,1685198,329
A,2,1651182,sinestep5.wav,None,1000,10,1687198,319
A,2,1651182,vowelstep3.wav,None,1000,10,1689198,330
A,2,1651182,vowelstep5.wav,None,1000,10,1691198,341
A,2,1651182,vowelstep3.wav,None,1000,10,1693198,341
A,2,1651182,vowelstep1.wav,None,1000,10,1695198,351
A,2,1651182,vowelstep3.wav,None,1000,10,1697199,331
A,2,1651182,sinestep3.wav,None,1000,10,1699198,327
A,2,1651182,sinestep7.wav,None,1000,10,1701198,328
A,2,1651182,sinestep5.wav,None,1000,10,1703198,327
A,2,1651182,vowelstep7_catch.wav,1,226,10,1705198,339
A,2,1651182,silence.wav,None,1000,10,1707198,1112
A,2,1651182,vowelstep3.wav,None,1000,10,1709198,349
A,2,1651182,vowelstep1.wav,None,1000,10,1711198,319
A,2,1651182,silence.wav,None,1000,10,1713199,327
A,2,1651182,sinestep3.wav,None,1000,10,1715199,328
A,2,1651182,sinestep7.wav,None,1000,10,1717199,338
A,2,1651182,sinestep5.wav,None,1000,10,1719199,338
A,2,1651182,sinestep5.wav,None,1000,10,1721199,339
A,2,1651182,sinestep7.wav,None,1000,10,1723198,348
A,2,1651182,sinestep1.wav,None,1000,10,1725198,349
A,2,1651182,sinestep5.wav,None,1000,10,1727198,327
A,2,1651182,vowelstep1.wav,None,1000,10,1729198,327
A,2,1651182,sinestep1.wav,None,1000,10,1731199,338
A,2,1651182,vowelstep5.wav,None,1000,10,1733199,338
A,2,1651182,sinestep1.wav,None,1000,10,1735199,338
A,2,1651182,silence.wav,None,1000,10,1737199,338
A,2,1651182,vowelstep1.wav,None,1000,10,1739199,317
A,2,1651182,sinestep3.wav,None,1000,10,1741199,328
A,2,1651182,vowelstep5.wav,None,1000,10,1743199,326
A,2,1651182,vowelstep5.wav,None,1000,10,1745199,337
A,2,1651182,vowelstep5.wav,None,1000,10,1747199,308
A,2,1651182,vowelstep7.wav,None,1000,10,1749199,337
A,2,1651182,vowelstep3.wav,None,1000,10,1751199,318
A,2,1651182,sinestep1.wav,None,1000,10,1753199,316
A,2,1651182,sinestep1.wav,None,1000,10,1755199,324
A,2,1651182,vowelstep7.wav,None,1000,10,1757199,324
A,2,1651182,vowelstep1.wav,None,1000,10,1759199,324
A,2,1651182,vowelstep7.wav,None,1000,10,1761199,337
A,2,1651182,silence.wav,None,1000,10,1763199,338
A,2,1651182,sinestep1.wav,None,1000,10,1765199,337
A,2,1651182,vowelstep1.wav,None,1000,10,1767200,345
A,2,1651182,silence.wav,None,1000,10,1769200,324
A,2,1651182,vowelstep1.wav,None,1000,10,1771200,325
A,2,1651182,vowelstep3.wav,None,1000,10,1773199,324
A,2,1651182,vowelstep1.wav,None,1000,10,1775199,335
A,2,1651182,sinestep7.wav,None,1000,10,1777199,335
A,2,1651182,silence.wav,None,1000,10,1779199,335
A,2,1651182,vowelstep1.wav,None,1000,10,1781199,315
A,2,1651182,silence.wav,None,1000,10,1783200,325
A,2,1651182,sinestep7.wav,None,1000,10,1785200,321
A,2,1651182,vowelstep5.wav,None,1000,10,1787200,320
A,2,1651182,sinestep7.wav,None,1000,10,1789200,335
A,2,1651182,sinestep3.wav,None,1000,10,1791200,332
A,2,1651182,vowelstep5.wav,None,1000,10,1793200,335
A,2,1651182,silence.wav,None,1000,10,1795200,324
A,2,1651182,sinestep3.wav,None,1000,10,1797199,324
A,2,1651182,sinestep5.wav,None,1000,10,1799199,324
A,2,1651182,sinestep3.wav,None,1000,10,1801200,324
A,2,1651182,vowelstep3.wav,None,1000,10,1803200,330
A,2,1651182,sinestep3.wav,None,1000,10,1805200,333
A,2,1651182,vowelstep7_catch.wav,None,1000,10,1807200,334
A,2,1651182,vowelstep7.wav,None,1000,10,1809200,343
A,2,1651182,vowelstep5.wav,None,1000,10,1811200,323
A,2,1651182,sinestep5.wav,None,1000,10,1813200,323
A,2,1651182,silence.wav,None,1000,10,1815200,313
A,2,1651182,sinestep5.wav,None,1000,10,1817200,333
A,2,1651182,vowelstep5_catch.wav,1,807,10,1819201,333
A,2,1651182,silence.wav,None,1000,10,1821200,525
A,2,1651182,sinestep7.wav,None,1000,10,1823200,342
A,2,1651182,sinestep5.wav,None,1000,10,1825200,323
A,2,1651182,sinestep7.wav,None,1000,10,1827200,322
A,2,1651182,vowelstep3.wav,None,1000,10,1829200,322
A,2,1651182,sinestep5.wav,None,1000,10,1831200,330
A,2,1651182,vowelstep1.wav,None,1000,10,1833200,332
A,2,1651182,vowelstep5.wav,None,1000,10,1835200,331
A,2,1651182,sinestep5.wav,None,1000,10,1837201,341
A,2,1651182,vowelstep1.wav,None,1000,10,1839201,342
A,2,1651182,silence.wav,None,1000,10,1841201,322
A,2,1651182,sinestep1.wav,None,1000,10,1843201,320
A,2,1651182,vowelstep5.wav,None,1000,10,1845200,321
A,2,1651182,sinestep3.wav,None,1000,10,1847200,316
A,2,1651182,silence.wav,None,1000,10,1849200,329
A,2,1651182,vowelstep3.wav,None,1000,10,1851200,341
A,2,1651182,vowelstep3_catch.wav,1,335,10,1853184,309
A,2,1651182,vowelstep5.wav,None,1000,10,1855201,1005
A,2,1651182,vowelstep1_catch.wav,1,235,10,1857201,319
A,2,1651182,silence.wav,None,1000,10,1859201,1094
A,2,1651182,sinestep3.wav,None,1000,10,1861201,329
A,2,1651182,vowelstep5.wav,None,1000,10,1863201,328
A,2,1651182,silence.wav,None,1000,10,1865201,328
A,2,1651182,sinestep5.wav,None,1000,10,1867201,339
A,2,1651182,vowelstep7.wav,None,1000,10,1869200,320
A,2,1651182,silence.wav,None,1000,10,1871185,350
A,2,1651182,vowelstep3.wav,None,1000,10,1873201,349
A,2,1651182,sinestep7.wav,None,1000,10,1875201,328
A,2,1651182,silence.wav,None,1000,10,1877201,328
A,2,1651182,vowelstep3.wav,None,1000,10,1879201,284
A,2,1651182,vowelstep5.wav,None,1000,10,1881201,337
A,2,1651182,vowelstep7.wav,None,1000,10,1883201,338
A,2,1651182,vowelstep3.wav,None,1000,10,1885201,339
A,2,1651182,vowelstep5.wav,None,1000,10,1887201,327
A,2,1651182,sinestep1_catch.wav,1,626,10,1889185,327
A,2,1651182,sinestep3.wav,None,1000,10,1891202,721
A,2,1651182,sinestep1.wav,None,1000,10,1893201,327
A,2,1651182,sinestep3_catch.wav,1,183,10,1895201,338
A,2,1651182,sinestep7.wav,None,1000,10,1897201,1155
A,2,1651182,vowelstep1.wav,None,1000,10,1899201,348
A,2,1651182,sinestep3.wav,None,1000,10,1901184,349
A,2,1651182,vowelstep7.wav,None,1000,10,1903201,348
A,2,1651182,silence.wav,None,1000,10,1905201,328
A,2,1651182,sinestep1.wav,None,1000,10,1907185,326
A,2,1651182,silence.wav,None,1000,10,1909202,338
A,2,1651182,vowelstep5.wav,None,1000,10,1911202,334
A,2,1651182,sinestep5_catch.wav,1,291,10,1913202,337
A,2,1651182,vowelstep7.wav,None,1000,10,1915202,1055
A,2,1651182,sinestep3.wav,None,1000,10,1917185,325
A,2,1651182,vowelstep1.wav,None,1000,10,1919185,347
A,2,1651182,vowelstep3.wav,None,1000,10,1921201,357
A,2,1651182,sinestep7_catch.wav,1,248,10,1923186,336
A,2,1651182,silence.wav,None,1000,10,1925185,1087
A,2,1651182,vowelstep7.wav,None,1000,10,1927185,335
A,2,1651182,sinestep7.wav,None,1000,10,1929202,336
A,2,1651182,sinestep1.wav,None,1000,10,1931202,325
A,2,1651182,vowelstep7.wav,None,1000,10,1933185,325
A,2,1651182,sinestep5.wav,None,1000,10,1935185,356
A,2,1651182,sinestep5.wav,None,1000,10,1937185,336
A,2,1651182,sinestep7_catch.wav,1,248,10,1939202,335
A,2,1651182,sinestep5.wav,None,1000,10,1941186,1087
A,2,1651182,silence.wav,None,1000,10,1943186,345
A,2,1651182,vowelstep3.wav,None,1000,10,1945186,345
A,2,1651182,silence.wav,None,1000,10,1947202,345
A,2,1651182,vowelstep1.wav,None,1000,10,1949186,324
A,2,1651182,sinestep1.wav,None,1000,10,1951185,355
A,2,1651182,sinestep7.wav,None,1000,10,1953185,357
A,2,1651182,vowelstep7.wav,None,1000,10,1955185,365
A,2,1651182,sinestep1_catch.wav,1,409,10,1957185,335
A,2,1651182,silence.wav,None,1000,10,1959186,935
A,2,1651182,silence.wav,None,1000,10,1961186,343
A,2,1651182,vowelstep7.wav,None,1000,10,1963186,354
A,2,1651182,sinestep1.wav,None,1000,10,1965186,354
A,2,1651182,vowelstep7.wav,None,1000,10,1967186,354
A,2,1651182,vowelstep7.wav,None,1000,10,1969186,335
H,3,2031355,sinestep3.wav,None,1000,10,2031370,0
H,3,2031355,sinestep7.wav,None,1000,10,2033370,332
H,3,2031355,sinestep3.wav,None,1000,10,2035370,333
H,3,2031355,vowelstep3.wav,None,1000,10,2037370,332
H,3,2031355,vowelstep1.wav,None,1000,10,2039370,343
H,3,2031355,sinestep7.wav,None,1000,10,2041370,344
H,3,2031355,vowelstep3.wav,None,1000,10,2043370,323
H,3,2031355,silence.wav,None,1000,10,2045371,323
H,3,2031355,vowelstep1.wav,None,1000,10,2047371,332
H,3,2031355,sinestep5.wav,None,1000,10,2049371,331
H,3,2031355,sinestep7.wav,None,1000,10,2051371,342
H,3,2031355,vowelstep7.wav,None,1000,10,2053371,342
H,3,2031355,vowelstep1_catch.wav,1,162,10,2055370,339
H,3,2031355,sinestep5.wav,None,1000,10,2057370,1179
H,3,2031355,vowelstep5.wav,None,1000,10,2059370,351
H,3,2031355,silence.wav,None,1000,10,2061370,332
H,3,2031355,vowelstep3_catch.wav,1,285,10,2063371,332
H,3,2031355,sinestep7.wav,None,1000,10,2065371,1045
H,3,2031355,sinestep5.wav,None,1000,10,2067371,339
H,3,2031355,silence.wav,None,1000,10,2069371,341
H,3,2031355,vowelstep3.wav,None,1000,10,2071371,351
H,3,2031355,vowelstep1.wav,None,1000,10,2073371,352
H,3,2031355,vowelstep1.wav,None,1000,10,2075371,330
H,3,2031355,vowelstep3.wav,None,1000,10,2077371,331
H,3,2031355,sinestep3.wav,None,1000,10,2079370,330
H,3,2031355,vowelstep1.wav,None,1000,10,2081371,342
H,3,2031355,sinestep7.wav,None,1000,10,2083371,341
H,3,2031355,vowelstep7.wav,None,1000,10,2085371,341
H,3,2031355,vowelstep5_catch.wav,1,687,10,2087371,321
H,3,2031355,vowelstep5.wav,None,1000,10,2089371,644
H,3,2031355,vowelstep3.wav,None,1000,10,2091371,329
H,3,2031355,vowelstep7_catch.wav,1,186,10,2093371,327
H,3,2031355,sinestep3.wav,None,1000,10,2095371,1152
H,3,2031355,sinestep1.wav,None,1000,10,2097371,337
H,3,2031355,sinestep7.wav,None,1000,10,2099372,339
H,3,2031355,silence.wav,None,1000,10,2101372,338
H,3,2031355,vowelstep1.wav,None,1000,10,2103371,329
H,3,2031355,vowelstep7.wav,None,1000,10,2105371,328
H,3,2031355,sinestep7.wav,None,1000,10,2107371,329
H,3,2031355,sinestep1.wav,None,1000,10,2109371,328
H,3,2031355,sinestep7.wav,None,1000,10,2111371,338
H,3,2031355,sinestep1.wav,None,1000,10,2113371,338
H,3,2031355,vowelstep5.wav,None,1000,10,2115372,318
H,3,2031355,sinestep3.wav,None,1000,10,2117372,318
H,3,2031355,vowelstep5.wav,None,1000,10,2119372,328
H,3,2031355,silence.wav,None,1000,10,2121372,328
H,3,2031355,silence.wav,None,1000,10,2123372,335
H,3,2031355,sinestep5.wav,None,1000,10,2125372,337
H,3,2031355,sinestep3.wav,None,1000,10,2127371,337
H,3,2031355,sinestep7.wav,None,1000,10,2129371,333
H,3,2031355,sinestep7_catch.wav,1,312,10,2131371,327
H,3,2031355,silence.wav,None,1000,10,2133372,1015
H,3,2031355,sinestep3.wav,None,1000,10,2135372,326
H,3,2031355,silence.wav,None,1000,10,2137372,326
H,3,2031355,vowelstep1.wav,None,1000,10,2139372,337
H,3,2031355,vowelstep7.wav,None,1000,10,2141372,337
H,3,2031355,sinestep5.wav,None,1000,10,2143372,347
H,3,2031355,silence.wav,None,1000,10,2145372,317
H,3,2031355,vowelstep7.wav,None,1000,10,2147372,326
H,3,2031355,vowelstep3.wav,None,1000,10,2149372,327
H,3,2031355,sinestep5.wav,None,1000,10,2151373,327
H,3,2031355,sinestep1.wav,None,1000,10,2153372,336
H,3,2031355,vowelstep3.wav,None,1000,10,2155372,335
H,3,2031355,vowelstep3.wav,None,1000,10,2157372,335
H,3,2031355,vowelstep5.wav,None,1000,10,2159372,315
H,3,2031355,vowelstep1.wav,None,1000,10,2161372,326
H,3,2031355,vowelstep7.wav,None,1000,10,2163372,325
H,3,2031355,vowelstep3.wav,None,1000,10,2165372,324
H,3,2031355,vowelstep5.wav,None,1000,10,2167372,334
H,3,2031355,vowelstep5.wav,None,1000,10,2169373,334
H,3,2031355,sinestep7.wav,None,1000,10,2171373,334
H,3,2031355,vowelstep1.wav,None,1000,10,2173373,344
H,3,2031355,sinestep3.wav,None,1000,10,2175373,323
H,3,2031355,sinestep1.wav,None,1000,10,2177372,325
H,3,2031355,vowelstep1.wav,None,1000,10,2179372,324
H,3,2031355,sinestep5_catch.wav,1,292,10,2181372,333
H,3,2031355,sinestep7.wav,None,1000,10,2183372,1043
H,3,2031355,sinestep3_catch.wav,1,276,10,2185373,333
H,3,2031355,sinestep7.wav,None,1000,10,2187373,1067
H,3,2031355,sinestep5.wav,None,1000,10,2189373,286
H,3,2031355,silence.wav,None,1000,10,2191373,322
H,3,2031355,sinestep1_catch.wav,1,152,10,2193373,322
H,3,2031355,vowelstep7.wav,None,1000,10,2195373,1181
H,3,2031355,vowelstep7.wav,None,1000,10,2197373,332
H,3,2031355,sinestep7.wav,None,1000,10,2199373,333
H,3,2031355,sinestep3.wav,None,1000,10,2201372,342
H,3,2031355,sinestep5.wav,None,1000,10,2203373,323
H,3,2031355,vowelstep1_catch.wav,1,240,10,2205373,322
H,3,2031355,vowelstep1.wav,None,1000,10,2207373,1081
H,3,2031355,sinestep3.wav,None,1000,10,2209373,331
H,3,2031355,sinestep3.wav,None,1000,10,2211373,333
H,3,2031355,vowelstep5.wav,None,1000,10,2213373,332
H,3,2031355,sinestep1.wav,None,1000,10,2215373,340
H,3,2031355,sinestep1.wav,None,1000,10,2217373,313
H,3,2031355,vowelstep7.wav,None,1000,10,2219373,320
H,3,2031355,sinestep1.wav,None,1000,10,2221374,322
H,3,2031355,sinestep5.wav,None,1000,10,2223374,330
H,3,2031355,vowelstep3_catch.wav,None,1000,10,2225373,331
H,3,2031355,sinestep1.wav,None,1000,10,2227373,331
H,3,2031355,silence.wav,None,1000,10,2229373,341
H,3,2031355,vowelstep1.wav,None,1000,10,2231373,321
H,3,2031355,vowelstep5_catch.wav,1,201,10,2233373,320
H,3,2031355,sinestep5.wav,None,1000,10,2235373,1119
H,3,2031355,sinestep1.wav,None,1000,10,2237373,331
H,3,2031355,silence.wav,None,1000,10,2239374,329
H,3,2031355,sinestep3.wav,None,1000,10,2241374,330
H,3,2031355,silence.wav,None,1000,10,2243374,339
H,3,2031355,vowelstep7_catch.wav,1,241,10,2245374,340
H,3,2031355,vowelstep5.wav,None,1000,10,2247374,1080
H,3,2031355,sinestep7.wav,None,1000,10,2249373,320
H,3,2031355,silence.wav,None,1000,10,2251373,321
H,3,2031355,sinestep1.wav,None,1000,10,2253373,330
H,3,2031355,silence.wav,None,1000,10,2255374,329
H,3,2031355,silence.wav,None,1000,10,2257374,329
H,3,2031355,silence.wav,None,1000,10,2259374,308
H,3,2031355,silence.wav,None,1000,10,2261374,320
H,3,2031355,sinestep5.wav,None,1000,10,2263374,318
H,3,2031355,silence.wav,None,1000,10,2265374,317
H,3,2031355,vowelstep3.wav,None,1000,10,2267374,329
H,3,2031355,silence.wav,None,1000,10,2269374,328
H,3,2031355,silence.wav,None,1000,10,2271374,329
H,3,2031355,vowelstep1_catch.wav,1,324,10,2273374,339
H,3,2031355,vowelstep5.wav,None,1000,10,2275374,1013
H,3,2031355,vowelstep7.wav,None,1000,10,2277374,317
H,3,2031355,vowelstep3_catch.wav,1,200,10,2279374,318
H,3,2031355,vowelstep1.wav,None,1000,10,2281357,1127
H,3,2031355,sinestep3.wav,None,1000,10,2283374,348
H,3,2031355,vowelstep5_catch.wav,1,309,10,2285374,337
H,3,2031355,vowelstep5.wav,None,1000,10,2287374,1028
H,3,2031355,silence.wav,None,1000,10,2289374,315
H,3,2031355,vowelstep7.wav,None,1000,10,2291375,338
H,3,2031355,sinestep5.wav,None,1000,10,2293375,317
H,3,2031355,vowelstep5.wav,None,1000,10,2295375,326
H,3,2031355,vowelstep7.wav,None,1000,10,2297358,326
H,3,2031355,vowelstep3.wav,None,1000,10,2299358,321
H,3,2031355,vowelstep3.wav,None,1000,10,2301374,336
H,3,2031355,silence.wav,None,1000,10,2303374,336
H,3,2031355,vowelstep3.wav,None,1000,10,2305374,337
H,3,2031355,sinestep1.wav,None,1000,10,2307374,346
H,3,2031355,silence.wav,None,1000,10,2309375,325
H,3,2031355,sinestep1.wav,None,1000,10,2311375,325
H,3,2031355,vowelstep3.wav,None,1000,10,2313358,326
H,3,2031355,silence.wav,None,1000,10,2315358,336
H,3,2031355,vowelstep5.wav,None,1000,10,2317358,334
H,3,2031355,vowelstep5.wav,None,1000,10,2319375,336
H,3,2031355,vowelstep1.wav,None,1000,10,2321374,317
H,3,2031355,sinestep5.wav,None,1000,10,2323374,326
H,3,2031355,vowelstep7.wav,None,1000,10,2325359,324
H,3,2031355,vowelstep1.wav,None,1000,10,2327375,355
H,3,2031355,vowelstep7.wav,None,1000,10,2329358,325
H,3,2031355,vowelstep3.wav,None,1000,10,2331358,331
H,3,2031355,sinestep1.wav,None,1000,10,2333358,334
H,3,2031355,sinestep5.wav,None,1000,10,2335358,333
H,3,2031355,vowelstep5.wav,None,1000,10,2337358,344
H,3,2031355,sinestep3.wav,None,1000,10,2339375,345
H,3,2031355,vowelstep7.wav,None,1000,10,2341375,325
H,3,2031355,sinestep7.wav,None,1000,10,2343359,325
H,3,2031355,sinestep5.wav,None,1000,10,2345359,334
H,3,2031355,sinestep3.wav,None,1000,10,2347359,334
H,3,2031355,sinestep1.wav,None,1000,10,2349359,343
J,4,2415690,sinestep5_catch.wav,2,696,10,2415693,0
J,4,2415690,sinestep5.wav,None,1000,10,2417710,645
J,4,2415690,sinestep3.wav,None,1000,10,2419710,314
J,4,2415690,sinestep1.wav,None,1000,10,2421710,324
J,4,2415690,sinestep7.wav,None,1000,10,2423710,325
J,4,2415690,vowelstep3.wav,None,1000,10,2425693,334
J,4,2415690,sinestep1.wav,None,1000,10,2427693,333
J,4,2415690,vowelstep5.wav,None,1000,10,2429709,336
J,4,2415690,vowelstep3.wav,None,1000,10,2431694,335
J,4,2415690,vowelstep1.wav,None,1000,10,2433694,345
J,4,2415690,vowelstep1.wav,None,1000,10,2435693,343
J,4,2415690,sinestep3.wav,None,1000,10,2437710,332
J,4,2415690,silence.wav,None,1000,10,2439710,323
J,4,2415690,vowelstep7.wav,None,1000,10,2441693,334
J,4,2415690,sinestep3.wav,None,1000,10,2443693,354
J,4,2415690,sinestep7.wav,None,1000,10,2445693,344
J,4,2415690,silence.wav,None,1000,10,2447694,343
J,4,2415690,vowelstep5.wav,None,1000,10,2449694,343
J,4,2415690,sinestep1.wav,None,1000,10,2451694,342
J,4,2415690,sinestep1_catch.wav,2,198,10,2453694,322
J,4,2415690,sinestep7.wav,None,1000,10,2455710,1134
J,4,2415690,vowelstep7.wav,None,1000,10,2457694,333
J,4,2415690,sinestep3_catch.wav,2,174,10,2459693,363
J,4,2415690,vowelstep3.wav,None,1000,10,2461693,1168
J,4,2415690,vowelstep7.wav,None,1000,10,2463693,343
J,4,2415690,sinestep1.wav,None,1000,10,2465694,342
J,4,2415690,vowelstep3.wav,None,1000,10,2467694,351
J,4,2415690,vowelstep1.wav,None,1000,10,2469694,352
J,4,2415690,sinestep5.wav,None,1000,10,2471694,352
J,4,2415690,sinestep5_catch.wav,2,320,10,2473694,332
J,4,2415690,sinestep5.wav,None,1000,10,2475694,1021
J,4,2415690,vowelstep7.wav,None,1000,10,2477694,338
J,4,2415690,sinestep7.wav,None,1000,10,2479694,342
J,4,2415690,vowelstep1.wav,None,1000,10,2481694,351
J,4,2415690,sinestep7_catch.wav,2,238,10,2483694,345
J,4,2415690,silence.wav,None,1000,10,2485694,1111
J,4,2415690,vowelstep5.wav,None,1000,10,2487694,359
J,4,2415690,sinestep5.wav,None,1000,10,2489694,341
J,4,2415690,sinestep5.wav,None,1000,10,2491694,339
J,4,2415690,vowelstep3.wav,None,1000,10,2493694,341
J,4,2415690,vowelstep5.wav,None,1000,10,2495694,351
J,4,2415690,sinestep3.wav,None,1000,10,2497694,350
J,4,2415690,silence.wav,None,1000,10,2499694,352
J,4,2415690,vowelstep3.wav,None,1000,10,2501695,329
J,4,2415690,vowelstep7.wav,None,1000,10,2503695,331
J,4,2415690,silence.wav,None,1000,10,2505695,340
J,4,2415690,sinestep3.wav,None,1000,10,2507694,339
J,4,2415690,silence.wav,None,1000,10,2509694,350
J,4,2415690,sinestep1.wav,None,1000,10,2511694,350
J,4,2415690,sinestep5_catch.wav,2,250,10,2513694,350
J,4,2415690,sinestep7.wav,None,1000,10,2515694,1109
J,4,2415690,sinestep5.wav,None,1000,10,2517695,338
J,4,2415690,sinestep5.wav,None,1000,10,2519695,339
J,4,2415690,sinestep3.wav,None,1000,10,2521695,339
J,4,2415690,sinestep3_catch.wav,2,264,10,2523695,349
J,4,2415690,sinestep3.wav,None,1000,10,2525695,1085
J,4,2415690,silence.wav,None,1000,10,2527695,348
J,4,2415690,sinestep1.wav,None,1000,10,2529695,358
J,4,2415690,silence.wav,None,1000,10,2531695,358
J,4,2415690,vowelstep3.wav,None,1000,10,2533694,335
J,4,2415690,vowelstep5.wav,None,1000,10,2535695,340
J,4,2415690,vowelstep7.wav,None,1000,10,2537695,336
J,4,2415690,silence.wav,None,1000,10,2539695,347
J,4,2415690,sinestep1.wav,None,1000,10,2541695,349
J,4,2415690,sinestep3.wav,None,1000,10,2543695,358
J,4,2415690,sinestep7.wav,None,1000,10,2545695,324
J,4,2415690,silence.wav,None,1000,10,2547695,333
J,4,2415690,sinestep1.wav,None,1000,10,2549695,331
J,4,2415690,vowelstep7.wav,None,1000,10,2551695,343
J,4,2415690,sinestep5.wav,None,1000,10,2553696,347
J,4,2415690,vowelstep1.wav,None,1000,10,2555695,345
J,4,2415690,vowelstep7.wav,None,1000,10,2557695,346
J,4,2415690,vowelstep3.wav,None,1000,10,2559695,336
J,4,2415690,vowelstep3.wav,None,1000,10,2561695,336
J,4,2415690,sinestep7.wav,None,1000,10,2563695,336
J,4,2415690,vowelstep5.wav,None,1000,10,2565695,336
J,4,2415690,silence.wav,None,1000,10,2567695,346
J,4,2415690,sinestep1.wav,None,1000,10,2569696,346
J,4,2415690,sinestep3.wav,None,1000,10,2571696,355
J,4,2415690,silence.wav,None,1000,10,2573696,325
J,4,2415690,sinestep1.wav,None,1000,10,2575696,335
J,4,2415690,vowelstep7.wav,None,1000,10,2577696,335
J,4,2415690,vowelstep7.wav,None,1000,10,2579696,345
J,4,2415690,sinestep1_catch.wav,2,289,10,2581695,345
J,4,2415690,vowelstep1_catch.wav,2,360,10,2583695,1056
J,4,2415690,vowelstep1.wav,None,1000,10,2585695,985
J,4,2415690,vowelstep7.wav,None,1000,10,2587696,334
J,4,2415690,sinestep1.wav,None,1000,10,2589696,334
J,4,2415690,vowelstep5.wav,None,1000,10,2591696,334
J,4,2415690,vowelstep5.wav,None,1000,10,2593696,334
J,4,2415690,sinestep5.wav,None,1000,10,2595696,344
J,4,2415690,sinestep7.wav,None,1000,10,2597696,344
J,4,2415690,sinestep7.wav,None,1000,10,2599696,344
J,4,2415690,sinestep1.wav,None,1000,10,2601696,354
J,4,2415690,vowelstep1.wav,None,1000,10,2603696,334
J,4,2415690,silence.wav,None,1000,10,2605696,334
J,4,2415690,sinestep5.wav,None,1000,10,2607696,331
J,4,2415690,vowelstep5.wav,None,1000,10,2609696,343
J,4,2415690,vowelstep1.wav,None,1000,10,2611696,341
J,4,2415690,vowelstep1.wav,None,1000,10,2613696,337
J,4,2415690,sinestep3.wav,None,1000,10,2615696,348
J,4,2415690,sinestep3.wav,None,1000,10,2617696,332
J,4,2415690,silence.wav,None,1000,10,2619696,332
J,4,2415690,sinestep5.wav,None,1000,10,2621696,333
J,4,2415690,vowelstep1.wav,None,1000,10,2623697,342
J,4,2415690,vowelstep5.wav,None,1000,10,2625697,342
J,4,2415690,vowelstep3.wav,None,1000,10,2627697,341
J,4,2415690,vowelstep3.wav,None,1000,10,2629696,341
J,4,2415690,silence.wav,None,1000,10,2631696,329
J,4,2415690,sinestep1.wav,None,1000,10,2633696,332
J,4,2415690,vowelstep3.wav,None,1000,10,2635696,329
J,4,2415690,sinestep7.wav,None,1000,10,2637696,342
J,4,2415690,vowelstep7.wav,None,1000,10,2639697,340
J,4,2415690,silence.wav,None,1000,10,2641697,341
J,4,2415690,vowelstep5.wav,None,1000,10,2643697,321
J,4,2415690,silence.wav,None,1000,10,2645697,321
J,4,2415690,sinestep3.wav,None,1000,10,2647697,330
J,4,2415690,vowelstep5.wav,None,1000,10,2649697,330
J,4,2415690,vowelstep3.wav,None,1000,10,2651697,340
J,4,2415690,vowelstep5.wav,None,1000,10,2653696,341
J,4,2415690,vowelstep7.wav,None,1000,10,2655696,340
J,4,2415690,vowelstep1.wav,None,1000,10,2657697,341
J,4,2415690,sinestep7.wav,None,1000,10,2659697,330
J,4,2415690,sinestep7.wav,None,1000,10,2661697,329
J,4,2415690,silence.wav,None,1000,10,2663697,330
J,4,2415690,vowelstep1.wav,None,1000,10,2665697,339
J,4,2415690,vowelstep3_catch.wav,None,1000,10,2667697,340
J,4,2415690,vowelstep1.wav,None,1000,10,2669697,340
J,4,2415690,vowelstep5_catch.wav,2,554,10,2671697,350
J,4,2415690,silence.wav,None,1000,10,2673697,795
J,4,2415690,sinestep5.wav,None,1000,10,2675698,328
J,4,2415690,vowelstep1.wav,None,1000,10,2677697,324
J,4,2415690,sinestep5.wav,None,1000,10,2679697,335
J,4,2415690,vowelstep3.wav,None,1000,10,2681697,339
J,4,2415690,sinestep5.wav,None,1000,10,2683697,338
J,4,2415690,sinestep7.wav,None,1000,10,2685697,339
J,4,2415690,silence.wav,None,1000,10,2687697,348
J,4,2415690,vowelstep7_catch.wav,2,187,10,2689697,349
J,4,2415690,sinestep3.wav,None,1000,10,2691697,1161
J,4,2415690,vowelstep5.wav,None,1000,10,2693698,358
J,4,2415690,silence.wav,None,1000,10,2695698,336
J,4,2415690,silence.wav,None,1000,10,2697698,338
J,4,2415690,silence.wav,None,1000,10,2699698,338
J,4,2415690,vowelstep7.wav,None,1000,10,2701698,348
J,4,2415690,sinestep3.wav,None,1000,10,2703697,348
J,4,2415690,vowelstep5_catch.wav,2,474,10,2705697,347
J,4,2415690,silence.wav,None,1000,10,2707697,883
J,4,2415690,sinestep7.wav,None,1000,10,2709698,338
J,4,2415690,vowelstep1.wav,None,1000,10,2711698,337
J,4,2415690,silence.wav,None,1000,10,2713698,346
J,4,2415690,sinestep1.wav,None,1000,10,2715698,346
J,4,2415690,sinestep5.wav,None,1000,10,2717698,347
J,4,2415690,vowelstep5.wav,None,1000,10,2719698,347
J,4,2415690,vowelstep3.wav,None,1000,10,2721698,356
J,4,2415690,sinestep7.wav,None,1000,10,2723698,337
J,4,2415690,vowelstep7.wav,None,1000,10,2725697,337
J,4,2415690,vowelstep3_catch.wav,2,427,10,2727698,337
J,4,2415690,vowelstep1_catch.wav,2,203,10,2729698,917
J,4,2415690,sinestep3.wav,None,1000,10,2731698,1142
J,4,2415690,sinestep1.wav,None,1000,10,2733698,346
C,5,2796802,sinestep1.wav,None,1000,10,2796815,0
C,5,2796802,vowelstep1.wav,None,1000,10,2798816,329
C,5,2796802,sinestep1.wav,None,1000,10,2800816,329
C,5,2796802,sinestep1.wav,None,1000,10,2802816,329
C,5,2796802,vowelstep1.wav,None,1000,10,2804816,340
C,5,2796802,sinestep1.wav,None,1000,10,2806816,324
C,5,2796802,sinestep7.wav,None,1000,10,2808816,322
C,5,2796802,vowelstep7.wav,None,1000,10,2810816,324
C,5,2796802,vowelstep3.wav,None,1000,10,2812816,333
C,5,2796802,vowelstep5.wav,None,1000,10,2814816,332
C,5,2796802,silence.wav,None,1000,10,2816816,333
C,5,2796802,sinestep3.wav,None,1000,10,2818816,312
C,5,2796802,vowelstep5.wav,None,1000,10,2820816,322
C,5,2796802,sinestep1.wav,None,1000,10,2822816,322
C,5,2796802,vowelstep1.wav,None,1000,10,2824816,322
C,5,2796802,vowelstep7.wav,None,1000,10,2826816,332
C,5,2796802,vowelstep3.wav,None,1000,10,2828816,332
C,5,2796802,sinestep1.wav,None,1000,10,2830816,332
C,5,2796802,sinestep5.wav,None,1000,10,2832817,342
C,5,2796802,silence.wav,None,1000,10,2834817,321
C,5,2796802,vowelstep7.wav,None,1000,10,2836817,321
C,5,2796802,vowelstep5.wav,None,1000,10,2838816,322
C,5,2796802,sinestep5.wav,None,1000,10,2840816,328
C,5,2796802,silence.wav,None,1000,10,2842816,332
C,5,2796802,sinestep5.wav,None,1000,10,2844816,330
C,5,2796802,sinestep1.wav,None,1000,10,2846816,341
C,5,2796802,silence.wav,None,1000,10,2848816,341
C,5,2796802,vowelstep1.wav,None,1000,10,2850817,341
C,5,2796802,vowelstep1.wav,None,1000,10,2852817,350
C,5,2796802,sinestep1.wav,None,1000,10,2854817,330
C,5,2796802,silence.wav,None,1000,10,2856817,328
C,5,2796802,vowelstep5.wav,None,1000,10,2858817,331
C,5,2796802,vowelstep3.wav,None,1000,10,2860817,328
C,5,2796802,vowelstep3.wav,None,1000,10,2862817,337
C,5,2796802,vowelstep7.wav,None,1000,10,2864816,336
C,5,2796802,silence.wav,None,1000,10,2866816,346
C,5,2796802,vowelstep3.wav,None,1000,10,2868817,314
C,5,2796802,silence.wav,None,1000,10,2870817,329
C,5,2796802,sinestep5.wav,None,1000,10,2872817,329
C,5,2796802,vowelstep7.wav,None,1000,10,2874817,339
C,5,2796802,vowelstep1_catch.wav,None,1000,10,2876817,340
C,5,2796802,vowelstep3.wav,None,1000,10,2878817,339
C,5,2796802,sinestep7.wav,None,1000,10,2880817,349
C,5,2796802,vowelstep3.wav,None,1000,10,2882817,319
C,5,2796802,sinestep1.wav,None,1000,10,2884818,328
C,5,2796802,sinestep7.wav,None,1000,10,2886818,328
C,5,2796802,sinestep7.wav,None,1000,10,2888817,330
C,5,2796802,sinestep3.wav,None,1000,10,2890817,338
C,5,2796802,vowelstep3_catch.wav,2,240,10,2892817,339
C,5,2796802,sinestep5.wav,None,1000,10,2894817,1097
C,5,2796802,sinestep5.wav,None,1000,10,2896817,348
C,5,2796802,vowelstep3.wav,None,1000,10,2898817,328
C,5,2796802,vowelstep5.wav,None,1000,10,2900817,327
C,5,2796802,sinestep1.wav,None,1000,10,2902818,327
C,5,2796802,sinestep3.wav,None,1000,10,2904818,337
C,5,2796802,vowelstep5.wav,None,1000,10,2906818,337
C,5,2796802,vowelstep7.wav,None,1000,10,2908818,337
C,5,2796802,vowelstep1.wav,None,1000,10,2910818,317
C,5,2796802,sinestep7.wav,None,1000,10,2912817,326
C,5,2796802,sinestep3.wav,None,1000,10,2914817,328
C,5,2796802,vowelstep1.wav,None,1000,10,2916817,337
C,5,2796802,vowelstep1.wav,None,1000,10,2918817,338
C,5,2796802,sinestep3.wav,None,1000,10,2920818,337
C,5,2796802,silence.wav,None,1000,10,2922818,336
C,5,2796802,silence.wav,None,1000,10,2924818,346
C,5,2796802,vowelstep5_catch.wav,2,635,10,2926818,322
C,5,2796802,vowelstep5.wav,None,1000,10,2928818,687
C,5,2796802,silence.wav,None,1000,10,2930818,322
C,5,2796802,sinestep1.wav,None,1000,10,2932818,332
C,5,2796802,vowelstep7.wav,None,1000,10,2934818,336
C,5,2796802,sinestep7.wav,None,1000,10,2936818,334
C,5,2796802,silence.wav,None,1000,10,2938818,344
C,5,2796802,silence.wav,None,1000,10,2940818,324
C,5,2796802,sinestep7.wav,None,1000,10,2942818,324
C,5,2796802,vowelstep1.wav,None,1000,10,2944818,326
C,5,2796802,vowelstep5.wav,None,1000,10,2946818,334
C,5,2796802,vowelstep5.wav,None,1000,10,2948818,335
C,5,2796802,vowelstep7.wav,None,1000,10,2950818,333
C,5,2796802,sinestep7.wav,None,1000,10,2952818,345
C,5,2796802,vowelstep1.wav,None,1000,10,2954819,324
C,5,2796802,vowelstep3.wav,None,1000,10,2956819,324
C,5,2796802,sinestep5.wav,None,1000,10,2958819,324
C,5,2796802,sinestep7.wav,None,1000,10,2960818,325
C,5,2796802,sinestep1.wav,None,1000,10,2962818,333
C,5,2796802,sinestep7.wav,None,1000,10,2964818,334
C,5,2796802,sinestep3.wav,None,1000,10,2966818,334
C,5,2796802,silence.wav,None,1000,10,2968818,324
C,5,2796802,vowelstep7.wav,None,1000,10,2970818,324
C,5,2796802,sinestep7.wav,None,1000,10,2972819,324
C,5,2796802,sinestep5.wav,None,1000,10,2974819,323
C,5,2796802,vowelstep7.wav,None,1000,10,2976819,333
C,5,2796802,vowelstep5.wav,None,1000,10,2978819,333
C,5,2796802,vowelstep3.wav,None,1000,10,2980819,342
C,5,2796802,vowelstep7_catch.wav,None,1000,10,2982819,323
C,5,2796802,vowelstep3.wav,None,1000,10,2984818,323
C,5,2796802,vowelstep5.wav,None,1000,10,2986818,323
C,5,2796802,vowelstep7.wav,None,1000,10,2988818,332
C,5,2796802,vowelstep7_catch.wav,2,223,10,2990819,328
C,5,2796802,vowelstep5_catch.wav,2,145,10,2992819,1105
C,5,2796802,sinestep5.wav,None,1000,10,2994819,1181
C,5,2796802,sinestep3.wav,None,1000,10,2996819,338
C,5,2796802,vowelstep3_catch.wav,2,169,10,2998819,322
C,5,2796802,vowelstep1_catch.wav,2,47,10,3000819,1151
C,5,2796802,vowelstep5.wav,None,1000,10,3002819,1274
C,5,2796802,vowelstep1.wav,None,1000,10,3004819,332
C,5,2796802,sinestep1_catch.wav,2,160,10,3006820,331
C,5,2796802,sinestep3_catch.wav,2,125,10,3008819,1180
C,5,2796802,sinestep1.wav,None,1000,10,3010819,1185
C,5,2796802,vowelstep3.wav,None,1000,10,3012819,320
C,5,2796802,sinestep3.wav,None,1000,10,3014819,322
C,5,2796802,vowelstep5.wav,None,1000,10,3016819,321
C,5,2796802,sinestep7.wav,None,1000,10,3018819,331
C,5,2796802,sinestep1.wav,None,1000,10,3020819,331
C,5,2796802,sinestep5_catch.wav,2,199,10,3022819,331
C,5,2796802,vowelstep7.wav,None,1000,10,3024820,1138
C,5,2796802,vowelstep3.wav,None,1000,10,3026820,320
C,5,2796802,silence.wav,None,1000,10,3028820,320
C,5,2796802,vowelstep1.wav,None,1000,10,3030820,321
C,5,2796802,sinestep5.wav,None,1000,10,3032819,325
C,5,2796802,sinestep1.wav,None,1000,10,3034819,329
C,5,2796802,vowelstep7.wav,None,1000,10,3036819,329
C,5,2796802,sinestep3.wav,None,1000,10,3038819,335
C,5,2796802,sinestep3.wav,None,1000,10,3040819,320
C,5,2796802,sinestep5.wav,None,1000,10,3042820,319
C,5,2796802,vowelstep3.wav,None,1000,10,3044820,318
C,5,2796802,sinestep3.wav,None,1000,10,3046820,329
C,5,2796802,silence.wav,None,1000,10,3048820,329
C,5,2796802,sinestep3.wav,None,1000,10,3050820,329
C,5,2796802,vowelstep1.wav,None,1000,10,3052820,310
C,5,2796802,silence.wav,None,1000,10,3054820,308
C,5,2796802,vowelstep1.wav,None,1000,10,3056820,315
C,5,2796802,silence.wav,None,1000,10,3058819,316
C,5,2796802,sinestep7.wav,None,1000,10,3060820,323
C,5,2796802,sinestep3.wav,None,1000,10,3062820,328
C,5,2796802,vowelstep1.wav,None,1000,10,3064820,327
C,5,2796802,sinestep7.wav,None,1000,10,3066820,337
C,5,2796802,sinestep7_catch.wav,2,288,10,3068820,317
C,5,2796802,vowelstep5.wav,None,1000,10,3070820,1028
C,5,2796802,silence.wav,None,1000,10,3072820,317
C,5,2796802,silence.wav,None,1000,10,3074820,327
C,5,2796802,sinestep3.wav,None,1000,10,3076821,322
C,5,2796802,vowelstep7.wav,None,1000,10,3078821,326
C,5,2796802,sinestep5.wav,None,1000,10,3080821,333
C,5,2796802,sinestep5.wav,None,1000,10,3082820,317
C,5,2796802,vowelstep3.wav,None,1000,10,3084820,315
C,5,2796802,sinestep3.wav,None,1000,10,3086820,337
C,5,2796802,silence.wav,None,1000,10,3088820,326
C,5,2796802,silence.wav,None,1000,10,3090820,328
C,5,2796802,vowelstep7.wav,None,1000,10,3092820,326
C,5,2796802,silence.wav,None,1000,10,3094821,336
C,5,2796802,vowelstep5.wav,None,1000,10,3096821,316
C,5,2796802,sinestep5.wav,None,1000,10,3098821,335
C,5,2796802,silence.wav,None,1000,10,3100821,345
C,5,2796802,silence.wav,None,1000,10,3102821,325
C,5,2796802,silence.wav,None,1000,10,3104821,325
C,5,2796802,sinestep7_catch.wav,2,264,10,3106820,325
C,5,2796802,sinestep7.wav,None,1000,10,3108820,1071
C,5,2796802,sinestep5_catch.wav,2,320,10,3110820,335
C,5,2796802,sinestep5.wav,None,1000,10,3112821,1014
C,5,2796802,sinestep3_catch.wav,2,168,10,3114821,335
I,6,3177099,vowelstep7.wav,None,1000,10,3177105,0
I,6,3177099,sinestep1_catch.wav,2,288,10,3179105,334
I,6,3177099,sinestep3.wav,None,1000,10,3181105,1056
I,6,3177099,silence.wav,None,1000,10,3183106,344
I,6,3177099,vowelstep7.wav,None,1000,10,3185106,343
I,6,3177099,sinestep3_catch.wav,2,105,10,3187105,327
I,6,3177099,vowelstep3.wav,None,1000,10,3189105,1228
I,6,3177099,vowelstep3.wav,None,1000,10,3191105,333
I,6,3177099,silence.wav,None,1000,10,3193105,338
I,6,3177099,vowelstep1.wav,None,1000,10,3195105,348
I,6,3177099,vowelstep5.wav,None,1000,10,3197105,347
I,6,3177099,vowelstep7.wav,None,1000,10,3199106,358
I,6,3177099,sinestep1.wav,None,1000,10,3201106,356
I,6,3177099,vowelstep1.wav,None,1000,10,3203106,336
I,6,3177099,sinestep5_catch.wav,2,865,10,3205106,337
I,6,3177099,sinestep5.wav,None,1000,10,3207106,471
I,6,3177099,vowelstep1.wav,None,1000,10,3209106,346
I,6,3177099,sinestep7.wav,None,1000,10,3211105,346
I,6,3177099,vowelstep3.wav,None,1000,10,3213105,346
I,6,3177099,vowelstep1.wav,None,1000,10,3215105,356
I,6,3177099,vowelstep1.wav,None,1000,10,3217106,336
I,6,3177099,sinestep3.wav,None,1000,10,3219106,335
I,6,3177099,sinestep5.wav,None,1000,10,3221106,335
I,6,3177099,sinestep5.wav,None,1000,10,3223106,345
I,6,3177099,vowelstep3.wav,None,1000,10,3225106,345
I,6,3177099,silence.wav,None,1000,10,3227106,356
I,6,3177099,sinestep7_catch.wav,2,152,10,3229106,356
I,6,3177099,silence.wav,None,1000,10,3231106,1179
I,6,3177099,sinestep1.wav,None,1000,10,3233106,337
I,6,3177099,vowelstep1.wav,None,1000,10,3235106,345
I,6,3177099,sinestep1.wav,None,1000,10,3237106,342
I,6,3177099,sinestep1.wav,None,1000,10,3239106,345
I,6,3177099,vowelstep7.wav,None,1000,10,3241106,344
I,6,3177099,sinestep5.wav,None,1000,10,3243106,352
I,6,3177099,sinestep5_catch.wav,2,163,10,3245106,334
I,6,3177099,vowelstep7.wav,None,1000,10,3247106,1168
I,6,3177099,vowelstep5.wav,None,1000,10,3249106,334
I,6,3177099,sinestep3.wav,None,1000,10,3251106,345
I,6,3177099,vowelstep1.wav,None,1000,10,3253107,343
I,6,3177099,sinestep3.wav,None,1000,10,3255107,344
I,6,3177099,sinestep5.wav,None,1000,10,3257107,354
I,6,3177099,sinestep5.wav,None,1000,10,3259106,324
I,6,3177099,vowelstep5.wav,None,1000,10,3261106,333
I,6,3177099,vowelstep7.wav,None,1000,10,3263106,335
I,6,3177099,sinestep3.wav,None,1000,10,3265106,341
I,6,3177099,vowelstep3.wav,None,1000,10,3267106,344
I,6,3177099,sinestep3.wav,None,1000,10,3269107,344
I,6,3177099,vowelstep5.wav,None,1000,10,3271107,322
I,6,3177099,sinestep7.wav,None,1000,10,3273107,324
I,6,3177099,sinestep3_catch.wav,None,1000,10,3275107,331
I,6,3177099,sinestep1_catch.wav,None,1000,10,3277107,333
I,6,3177099,vowelstep3.wav,None,1000,10,3279107,339
I,6,3177099,vowelstep3.wav,None,1000,10,3281107,342
I,6,3177099,vowelstep5.wav,None,1000,10,3283106,341
I,6,3177099,sinestep5.wav,None,1000,10,3285106,342
I,6,3177099,vowelstep5.wav,None,1000,10,3287107,333
I,6,3177099,vowelstep5.wav,None,1000,10,3289107,331
I,6,3177099,vowelstep1.wav,None,1000,10,3291107,325
I,6,3177099,vowelstep1_catch.wav,None,1000,10,3293107,331
I,6,3177099,sinestep7.wav,None,1000,10,3295107,342
I,6,3177099,vowelstep3.wav,None,1000,10,3297107,341
I,6,3177099,sinestep7.wav,2,710,10,3299107,352
I,6,3177099,sinestep7.wav,None,1000,10,3301107,622
I,6,3177099,vowelstep7.wav,None,1000,10,3303107,333
I,6,3177099,vowelstep3.wav,None,1000,10,3305108,332
I,6,3177099,sinestep5.wav,None,1000,10,3307107,341
I,6,3177099,sinestep5.wav,None,1000,10,3309107,338
I,6,3177099,vowelstep3.wav,None,1000,10,3311107,332
I,6,3177099,sinestep5.wav,None,1000,10,3313107,334
I,6,3177099,sinestep1.wav,None,1000,10,3315107,330
I,6,3177099,vowelstep7.wav,None,1000,10,3317107,329
I,6,3177099,silence.wav,None,1000,10,3319107,330
I,6,3177099,vowelstep7.wav,None,1000,10,3321107,328
I,6,3177099,silence.wav,None,1000,10,3323108,340
I,6,3177099,sinestep1.wav,None,1000,10,3325108,339
I,6,3177099,vowelstep1.wav,None,1000,10,3327108,339
I,6,3177099,vowelstep3.wav,None,1000,10,3329108,349
I,6,3177099,silence.wav,None,1000,10,3331108,326
I,6,3177099,silence.wav,None,1000,10,3333107,326
I,6,3177099,vowelstep1.wav,None,1000,10,3335107,329
I,6,3177099,sinestep1.wav,None,1000,10,3337107,337
I,6,3177099,vowelstep3_catch.wav,2,215,10,3339108,339
I,6,3177099,sinestep1.wav,None,1000,10,3341108,1121
I,6,3177099,vowelstep5.wav,None,1000,10,3343108,319
I,6,3177099,vowelstep5_catch.wav,2,232,10,3345108,319
I,6,3177099,sinestep1.wav,None,1000,10,3347108,1096
I,6,3177099,silence.wav,None,1000,10,3349108,326
I,6,3177099,vowelstep5.wav,None,1000,10,3351108,338
I,6,3177099,sinestep3.wav,None,1000,10,3353108,338
I,6,3177099,sinestep3.wav,None,1000,10,3355108,338
I,6,3177099,silence.wav,None,1000,10,3357108,348
I,6,3177099,silence.wav,None,1000,10,3359108,327
I,6,3177099,vowelstep3.wav,None,1000,10,3361108,327
I,6,3177099,vowelstep7.wav,None,1000,10,3363108,327
I,6,3177099,vowelstep7.wav,None,1000,10,3365108,337
I,6,3177099,silence.wav,None,1000,10,3367108,336
I,6,3177099,sinestep3.wav,None,1000,10,3369108,336
I,6,3177099,sinestep3.wav,None,1000,10,3371108,347
I,6,3177099,vowelstep5.wav,None,1000,10,3373108,324
I,6,3177099,vowelstep1.wav,None,1000,10,3375109,325
I,6,3177099,vowelstep1.wav,None,1000,10,3377109,322
I,6,3177099,sinestep5.wav,None,1000,10,3379109,336
I,6,3177099,silence.wav,None,1000,10,3381108,332
I,6,3177099,sinestep5.wav,None,1000,10,3383108,335
I,6,3177099,sinestep7.wav,None,1000,10,3385108,345
I,6,3177099,sinestep1.wav,None,1000,10,3387108,326
I,6,3177099,sinestep5.wav,None,1000,10,3389108,325
I,6,3177099,vowelstep5.wav,None,1000,10,3391108,326
I,6,3177099,sinestep7.wav,None,1000,10,3393109,335
I,6,3177099,sinestep5.wav,None,1000,10,3395109,333
I,6,3177099,sinestep3.wav,None,1000,10,3397109,335
I,6,3177099,silence.wav,None,1000,10,3399109,344
I,6,3177099,vowelstep7_catch.wav,2,691,10,3401109,325
I,6,3177099,sinestep7.wav,None,1000,10,3403109,633
I,6,3177099,sinestep7.wav,None,1000,10,3405108,325
I,6,3177099,sinestep3.wav,None,1000,10,3407108,325
I,6,3177099,vowelstep3.wav,None,1000,10,3409109,335
I,6,3177099,silence.wav,None,1000,10,3411109,334
I,6,3177099,sinestep3.wav,None,1000,10,3413109,344
I,6,3177099,sinestep5.wav,None,1000,10,3415109,343
I,6,3177099,silence.wav,None,1000,10,3417109,343
I,6,3177099,vowelstep3.wav,None,1000,10,3419109,343
I,6,3177099,sinestep1.wav,None,1000,10,3421109,353
I,6,3177099,sinestep1.wav,None,1000,10,3423109,334
I,6,3177099,sinestep7.wav,None,1000,10,3425109,333
I,6,3177099,vowelstep7.wav,None,1000,10,3427110,334
I,6,3177099,vowelstep5.wav,None,1000,10,3429109,315
I,6,3177099,silence.wav,None,1000,10,3431109,345
I,6,3177099,sinestep3.wav,None,1000,10,3433109,327
I,6,3177099,vowelstep1.wav,None,1000,10,3435109,323
I,6,3177099,vowelstep1.wav,None,1000,10,3437109,324
I,6,3177099,silence.wav,None,1000,10,3439109,334
I,6,3177099,vowelstep3.wav,None,1000,10,3441109,334
I,6,3177099,silence.wav,None,1000,10,3443109,337
I,6,3177099,silence.wav,None,1000,10,3445110,314
I,6,3177099,sinestep7.wav,None,1000,10,3447110,322
I,6,3177099,sinestep7.wav,None,1000,10,3449110,322
I,6,3177099,vowelstep5.wav,None,1000,10,3451110,325
I,6,3177099,silence.wav,None,1000,10,3453109,335
I,6,3177099,silence.wav,None,1000,10,3455109,335
I,6,3177099,sinestep1.wav,None,1000,10,3457109,335
I,6,3177099,silence.wav,None,1000,10,3459109,326
I,6,3177099,vowelstep7.wav,None,1000,10,3461109,324
I,6,3177099,vowelstep5_catch.wav,None,1000,10,3463110,325
I,6,3177099,sinestep7.wav,None,1000,10,3465110,324
I,6,3177099,sinestep1.wav,None,1000,10,3467110,334
I,6,3177099,vowelstep3_catch.wav,2,236,10,3469110,334
I,6,3177099,sinestep1.wav,None,1000,10,3471110,1096
I,6,3177099,vowelstep7.wav,None,1000,10,3473110,314
I,6,3177099,sinestep3.wav,None,1000,10,3475110,323
I,6,3177099,vowelstep5.wav,None,1000,10,3477109,324
I,6,3177099,vowelstep1_catch.wav,2,185,10,3479110,354
I,6,3177099,vowelstep7.wav,None,1000,10,3481110,1144
I,6,3177099,vowelstep5.wav,None,1000,10,3483110,333
I,6,3177099,sinestep1_catch.wav,2,195,10,3485110,332
I,6,3177099,silence.wav,None,1000,10,3487110,1131
I,6,3177099,sinestep7.wav,None,1000,10,3489110,344
I,6,3177099,silence.wav,None,1000,10,3491110,351
I,6,3177099,vowelstep1.wav,None,1000,10,3493110,351
I,6,3177099,sinestep7.wav,None,1000,10,3495110,322
G,7,3552834,vowelstep3.wav,None,1000,10,3552845,0
G,7,3552834,vowelstep3.wav,None,1000,10,3554845,312
G,7,3552834,vowelstep7.wav,None,1000,10,3556845,319
G,7,3552834,vowelstep3.wav,None,1000,10,3558844,318
G,7,3552834,sinestep5.wav,None,1000,10,3560844,328
G,7,3552834,sinestep1_catch.wav,2,224,10,3562844,333
G,7,3552834,silence.wav,None,1000,10,3564844,1117
G,7,3552834,silence.wav,None,1000,10,3566845,343
G,7,3552834,vowelstep7.wav,None,1000,10,3568845,342
G,7,3552834,vowelstep1.wav,None,1000,10,3570845,322
G,7,3552834,silence.wav,None,1000,10,3572845,321
G,7,3552834,sinestep1.wav,None,1000,10,3574845,332
G,7,3552834,vowelstep7.wav,None,1000,10,3576845,332
G,7,3552834,sinestep5.wav,None,1000,10,3578845,331
G,7,3552834,sinestep5.wav,None,1000,10,3580845,342
G,7,3552834,sinestep3.wav,None,1000,10,3582844,341
G,7,3552834,vowelstep3.wav,None,1000,10,3584845,341
G,7,3552834,silence.wav,None,1000,10,3586845,351
G,7,3552834,vowelstep1.wav,None,1000,10,3588845,330
G,7,3552834,sinestep7.wav,None,1000,10,3590845,331
G,7,3552834,vowelstep5.wav,None,1000,10,3592845,331
G,7,3552834,vowelstep3.wav,None,1000,10,3594845,331
G,7,3552834,sinestep1.wav,None,1000,10,3596845,342
G,7,3552834,sinestep7.wav,None,1000,10,3598845,340
G,7,3552834,sinestep1.wav,None,1000,10,3600845,321
G,7,3552834,sinestep5.wav,None,1000,10,3602846,329
G,7,3552834,vowelstep1.wav,None,1000,10,3604846,329
G,7,3552834,silence.wav,None,1000,10,3606845,331
G,7,3552834,sinestep5.wav,None,1000,10,3608845,340
G,7,3552834,vowelstep1.wav,None,1000,10,3610845,340
G,7,3552834,vowelstep3.wav,None,1000,10,3612845,340
G,7,3552834,sinestep3.wav,None,1000,10,3614845,340
G,7,3552834,sinestep1.wav,None,1000,10,3616845,329
G,7,3552834,vowelstep5.wav,None,1000,10,3618846,327
G,7,3552834,vowelstep3.wav,None,1000,10,3620846,325
G,7,3552834,vowelstep5.wav,None,1000,10,3622846,325
G,7,3552834,vowelstep7.wav,None,1000,10,3624846,334
G,7,3552834,vowelstep5.wav,None,1000,10,3626846,339
G,7,3552834,vowelstep5.wav,None,1000,10,3628846,338
G,7,3552834,sinestep3.wav,None,1000,10,3630845,329
G,7,3552834,sinestep3_catch.wav,2,77,10,3632845,329
G,7,3552834,sinestep5_catch.wav,2,194,10,3634845,1251
G,7,3552834,sinestep7.wav,None,1000,10,3636846,1144
G,7,3552834,sinestep7_catch.wav,2,174,10,3638846,337
G,7,3552834,sinestep7.wav,None,1000,10,3640846,1164
G,7,3552834,vowelstep1.wav,None,1000,10,3642846,338
G,7,3552834,vowelstep7.wav,None,1000,10,3644846,327
G,7,3552834,vowelstep3.wav,None,1000,10,3646846,327
G,7,3552834,sinestep3.wav,None,1000,10,3648846,327
G,7,3552834,sinestep1.wav,None,1000,10,3650846,328
G,7,3552834,sinestep1.wav,None,1000,10,3652846,338
G,7,3552834,sinestep5.wav,None,1000,10,3654847,335
G,7,3552834,vowelstep7.wav,None,1000,10,3656846,346
G,7,3552834,silence.wav,None,1000,10,3658846,346
G,7,3552834,sinestep3.wav,None,1000,10,3660846,326
G,7,3552834,vowelstep1.wav,None,1000,10,3662846,327
G,7,3552834,sinestep3.wav,None,1000,10,3664846,327
G,7,3552834,sinestep3.wav,None,1000,10,3666846,337
G,7,3552834,sinestep7.wav,None,1000,10,3668846,333
G,7,3552834,silence.wav,None,1000,10,3670846,336
G,7,3552834,vowelstep5.wav,None,1000,10,3672847,345
G,7,3552834,sinestep1_catch.wav,2,250,10,3674847,325
G,7,3552834,silence.wav,None,1000,10,3676847,1076
G,7,3552834,sinestep5.wav,None,1000,10,3678847,325
G,7,3552834,sinestep7.wav,None,1000,10,3680846,335
G,7,3552834,sinestep3.wav,None,1000,10,3682846,331
G,7,3552834,sinestep3.wav,None,1000,10,3684846,331
G,7,3552834,vowelstep5.wav,None,1000,10,3686846,340
G,7,3552834,sinestep3.wav,None,1000,10,3688847,320
G,7,3552834,sinestep3_catch.wav,2,231,10,3690847,323
G,7,3552834,vowelstep1.wav,None,1000,10,3692847,1092
G,7,3552834,vowelstep1.wav,None,1000,10,3694847,334
G,7,3552834,sinestep5.wav,None,1000,10,3696847,334
G,7,3552834,silence.wav,None,1000,10,3698847,335
G,7,3552834,sinestep3.wav,None,1000,10,3700847,314
G,7,3552834,silence.wav,None,1000,10,3702847,324
G,7,3552834,vowelstep3.wav,None,1000,10,3704846,324
G,7,3552834,sinestep5.wav,None,1000,10,3706847,324
G,7,3552834,vowelstep7.wav,None,1000,10,3708847,333
G,7,3552834,silence.wav,None,1000,10,3710847,333
G,7,3552834,sinestep5_catch.wav,2,350,10,3712847,333
G,7,3552834,vowelstep5.wav,None,1000,10,3714847,982
G,7,3552834,silence.wav,None,1000,10,3716847,322
G,7,3552834,vowelstep7.wav,None,1000,10,3718847,323
G,7,3552834,vowelstep1.wav,None,1000,10,3720847,323
G,7,3552834,vowelstep1.wav,None,1000,10,3722847,333
G,7,3552834,vowelstep1.wav,None,1000,10,3724848,333
G,7,3552834,sinestep5.wav,None,1000,10,3726848,331
G,7,3552834,vowelstep3.wav,None,1000,10,3728847,341
G,7,3552834,sinestep1.wav,None,1000,10,3730847,322
G,7,3552834,vowelstep1.wav,None,1000,10,3732847,321
G,7,3552834,sinestep1.wav,None,1000,10,3734847,323
G,7,3552834,sinestep7.wav,None,1000,10,3736847,332
G,7,3552834,sinestep7.wav,None,1000,10,3738847,332
G,7,3552834,sinestep3.wav,None,1000,10,3740847,328
G,7,3552834,sinestep5.wav,None,1000,10,3742848,341
G,7,3552834,silence.wav,None,1000,10,3744848,309
G,7,3552834,sinestep7_catch.wav,2,251,10,3746848,321
G,7,3552834,vowelstep7_catch.wav,2,291,10,3748848,1065
G,7,3552834,sinestep7.wav,None,1000,10,3750848,1024
G,7,3552834,silence.wav,None,1000,10,3752847,326
G,7,3552834,sinestep7.wav,None,1000,10,3754847,331
G,7,3552834,sinestep3.wav,None,1000,10,3756847,330
G,7,3552834,vowelstep7.wav,None,1000,10,3758848,340
G,7,3552834,sinestep1.wav,None,1000,10,3760848,320
G,7,3552834,silence.wav,None,1000,10,3762848,320
G,7,3552834,silence.wav,None,1000,10,3764848,319
G,7,3552834,vowelstep7.wav,None,1000,10,3766848,330
G,7,3552834,vowelstep5.wav,None,1000,10,3768848,331
G,7,3552834,sinestep7.wav,None,1000,10,3770848,340
G,7,3552834,vowelstep5.wav,None,1000,10,3772848,310
G,7,3552834,vowelstep5_catch.wav,2,459,10,3774848,319
G,7,3552834,vowelstep7.wav,None,1000,10,3776848,859
G,7,3552834,silence.wav,None,1000,10,3778848,329
G,7,3552834,silence.wav,None,1000,10,3780848,329
G,7,3552834,sinestep1.wav,None,1000,10,3782848,329
G,7,3552834,silence.wav,None,1000,10,3784848,328
G,7,3552834,vowelstep7.wav,None,1000,10,3786848,338
G,7,3552834,vowelstep5.wav,None,1000,10,3788848,314
G,7,3552834,vowelstep3.wav,None,1000,10,3790848,320
G,7,3552834,vowelstep3_catch.wav,2,270,10,3792848,318
G,7,3552834,sinestep1.wav,None,1000,10,3794849,1058
G,7,3552834,silence.wav,None,1000,10,3796849,327
G,7,3552834,sinestep7.wav,None,1000,10,3798849,328
G,7,3552834,sinestep1.wav,None,1000,10,3800848,338
G,7,3552834,sinestep3.wav,None,1000,10,3802848,338
G,7,3552834,vowelstep3.wav,None,1000,10,3804848,334
G,7,3552834,vowelstep1_catch.wav,2,341,10,3806848,318
G,7,3552834,sinestep7.wav,None,1000,10,3808848,986
G,7,3552834,silence.wav,None,1000,10,3810848,328
G,7,3552834,sinestep5.wav,None,1000,10,3812849,323
G,7,3552834,sinestep5.wav,None,1000,10,3814849,323
G,7,3552834,vowelstep5.wav,None,1000,10,3816849,312
G,7,3552834,sinestep5.wav,None,1000,10,3818849,317
G,7,3552834,sinestep7.wav,None,1000,10,3820849,345
G,7,3552834,silence.wav,None,1000,10,3822849,326
G,7,3552834,vowelstep7_catch.wav,2,212,10,3824848,326
G,7,3552834,vowelstep5.wav,None,1000,10,3826848,1114
G,7,3552834,silence.wav,None,1000,10,3828849,325
G,7,3552834,sinestep3.wav,None,1000,10,3830849,335
G,7,3552834,vowelstep5.wav,None,1000,10,3832849,336
G,7,3552834,silence.wav,None,1000,10,3834849,345
G,7,3552834,vowelstep1.wav,None,1000,10,3836849,323
G,7,3552834,sinestep1.wav,None,1000,10,3838849,325
G,7,3552834,vowelstep3.wav,None,1000,10,3840849,325
G,7,3552834,vowelstep7.wav,None,1000,10,3842849,326
G,7,3552834,vowelstep7.wav,None,1000,10,3844849,334
G,7,3552834,sinestep1.wav,None,1000,10,3846850,335
G,7,3552834,vowelstep5.wav,None,1000,10,3848849,344
G,7,3552834,silence.wav,None,1000,10,3850849,315
G,7,3552834,sinestep1.wav,None,1000,10,3852849,324
G,7,3552834,vowelstep7.wav,None,1000,10,3854849,324
G,7,3552834,vowelstep5_catch.wav,2,227,10,3856849,325
G,7,3552834,vowelstep3.wav,None,1000,10,3858849,1107
G,7,3552834,vowelstep3_catch.wav,2,271,10,3860849,335
G,7,3552834,sinestep7.wav,None,1000,10,3862849,1073
G,7,3552834,sinestep5.wav,None,1000,10,3864850,314
G,7,3552834,vowelstep1.wav,None,1000,10,3866850,324
G,7,3552834,vowelstep3.wav,None,1000,10,3868850,325
G,7,3552834,vowelstep1.wav,None,1000,10,3870850,333
B,8,3928037,vowelstep5.wav,None,1000,10,3928050,0
B,8,3928037,silence.wav,None,1000,10,3930050,320
B,8,3928037,sinestep7.wav,None,1000,10,3932050,319
B,8,3928037,vowelstep1_catch.wav,2,130,10,3934051,324
B,8,3928037,vowelstep7.wav,None,1000,10,3936051,1197
B,8,3928037,vowelstep3.wav,None,1000,10,3938051,332
B,8,3928037,vowelstep7.wav,None,1000,10,3940051,330
B,8,3928037,vowelstep5.wav,None,1000,10,3942051,342
B,8,3928037,vowelstep7.wav,None,1000,10,3944051,322
B,8,3928037,vowelstep3.wav,None,1000,10,3946050,323
B,8,3928037,silence.wav,None,1000,10,3948050,323
B,8,3928037,silence.wav,None,1000,10,3950050,332
B,8,3928037,sinestep5.wav,None,1000,10,3952051,333
B,8,3928037,sinestep1.wav,None,1000,10,3954051,341
B,8,3928037,vowelstep7.wav,None,1000,10,3956051,321
B,8,3928037,sinestep5.wav,None,1000,10,3958051,319
B,8,3928037,vowelstep1.wav,None,1000,10,3960051,318
B,8,3928037,vowelstep7.wav,None,1000,10,3962051,331
B,8,3928037,vowelstep3.wav,None,1000,10,3964051,326
B,8,3928037,sinestep5.wav,None,1000,10,3966051,327
B,8,3928037,vowelstep1.wav,None,1000,10,3968051,329
B,8,3928037,sinestep3.wav,None,1000,10,3970051,319
B,8,3928037,vowelstep5.wav,None,1000,10,3972051,320
B,8,3928037,vowelstep7.wav,None,1000,10,3974051,320
B,8,3928037,vowelstep3.wav,None,1000,10,3976051,321
B,8,3928037,sinestep7.wav,None,1000,10,3978051,330
B,8,3928037,sinestep3.wav,None,1000,10,3980051,330
B,8,3928037,sinestep1.wav,None,1000,10,3982051,331
B,8,3928037,sinestep1.wav,None,1000,10,3984051,340
B,8,3928037,sinestep5.wav,None,1000,10,3986052,320
B,8,3928037,vowelstep5.wav,None,1000,10,3988052,319
B,8,3928037,vowelstep3_catch.wav,2,247,10,3990052,320
B,8,3928037,vowelstep7.wav,None,1000,10,3992052,1082
B,8,3928037,sinestep1.wav,None,1000,10,3994052,326
B,8,3928037,vowelstep5.wav,None,1000,10,3996051,324
B,8,3928037,vowelstep5_catch.wav,2,187,10,3998051,304
B,8,3928037,vowelstep7.wav,None,1000,10,4000051,1126
B,8,3928037,sinestep3.wav,None,1000,10,4002051,319
B,8,3928037,vowelstep7_catch.wav,2,226,10,4004052,317
B,8,3928037,sinestep5.wav,None,1000,10,4006052,1102
B,8,3928037,vowelstep5.wav,None,1000,10,4008052,328
B,8,3928037,silence.wav,None,1000,10,4010052,328
B,8,3928037,silence.wav,None,1000,10,4012052,338
B,8,3928037,vowelstep3.wav,None,1000,10,4014052,318
B,8,3928037,silence.wav,None,1000,10,4016052,318
B,8,3928037,sinestep1.wav,None,1000,10,4018051,318
B,8,3928037,sinestep1.wav,None,1000,10,4020051,327
B,8,3928037,sinestep5.wav,None,1000,10,4022052,328
B,8,3928037,vowelstep7.wav,None,1000,10,4024052,328
B,8,3928037,sinestep5.wav,None,1000,10,4026052,337
B,8,3928037,sinestep5.wav,None,1000,10,4028052,316
B,8,3928037,silence.wav,None,1000,10,4030052,316
B,8,3928037,vowelstep1.wav,None,1000,10,4032052,317
B,8,3928037,silence.wav,None,1000,10,4034052,327
B,8,3928037,sinestep1.wav,None,1000,10,4036052,326
B,8,3928037,vowelstep7.wav,None,1000,10,4038052,327
B,8,3928037,silence.wav,None,1000,10,4040053,335
B,8,3928037,sinestep1.wav,None,1000,10,4042053,315
B,8,3928037,vowelstep3.wav,None,1000,10,4044052,335
B,8,3928037,vowelstep5.wav,None,1000,10,4046052,345
B,8,3928037,silence.wav,None,1000,10,4048052,326
B,8,3928037,sinestep3.wav,None,1000,10,4050052,327
B,8,3928037,sinestep5.wav,None,1000,10,4052052,325
B,8,3928037,silence.wav,None,1000,10,4054052,336
B,8,3928037,vowelstep5.wav,None,1000,10,4056053,336
B,8,3928037,sinestep3.wav,None,1000,10,4058053,332
B,8,3928037,sinestep5.wav,None,1000,10,4060053,310
B,8,3928037,sinestep5.wav,None,1000,10,4062053,319
B,8,3928037,sinestep7.wav,None,1000,10,4064053,320
B,8,3928037,sinestep7.wav,None,1000,10,4066053,324
B,8,3928037,vowelstep5.wav,None,1000,10,4068052,333
B,8,3928037,sinestep1.wav,None,1000,10,4070052,335
B,8,3928037,vowelstep7.wav,None,1000,10,4072052,334
B,8,3928037,sinestep7.wav,None,1000,10,4074053,335
B,8,3928037,vowelstep5.wav,None,1000,10,4076053,324
B,8,3928037,vowelstep1.wav,None,1000,10,4078053,323
B,8,3928037,sinestep3.wav,None,1000,10,4080053,323
B,8,3928037,silence.wav,None,1000,10,4082053,323
B,8,3928037,silence.wav,None,1000,10,4084053,334
B,8,3928037,sinestep7_catch.wav,2,232,10,4086053,333
B,8,3928037,vowelstep5.wav,None,1000,10,4088053,1110
B,8,3928037,sinestep7.wav,None,1000,10,4090053,314
B,8,3928037,vowelstep5.wav,None,1000,10,4092053,320
B,8,3928037,vowelstep3.wav,None,1000,10,4094053,322
B,8,3928037,silence.wav,None,1000,10,4096053,332
B,8,3928037,sinestep3.wav,None,1000,10,4098053,333
B,8,3928037,sinestep7_catch.wav,2,221,10,4100053,333
B,8,3928037,sinestep3.wav,None,1000,10,4102053,1110
B,8,3928037,sinestep5_catch.wav,2,189,10,4104053,322
B,8,3928037,vowelstep5.wav,None,1000,10,4106053,1133
B,8,3928037,silence.wav,None,1000,10,4108053,322
B,8,3928037,sinestep7.wav,None,1000,10,4110054,322
B,8,3928037,silence.wav,None,1000,10,4112054,331
B,8,3928037,sinestep3.wav,None,1000,10,4114054,332
B,8,3928037,silence.wav,None,1000,10,4116053,332
B,8,3928037,vowelstep7.wav,None,1000,10,4118053,312
B,8,3928037,vowelstep3.wav,None,1000,10,4120053,322
B,8,3928037,vowelstep3.wav,None,1000,10,4122053,319
B,8,3928037,sinestep7.wav,None,1000,10,4124053,317
B,8,3928037,sinestep7.wav,None,1000,10,4126054,326
B,8,3928037,sinestep3.wav,None,1000,10,4128054,326
B,8,3928037,sinestep3_catch.wav,2,201,10,4130054,330
B,8,3928037,sinestep1.wav,None,1000,10,4132054,1108
B,8,3928037,sinestep1.wav,None,1000,10,4134054,320
B,8,3928037,sinestep3.wav,None,1000,10,4136054,321
B,8,3928037,silence.wav,None,1000,10,4138054,321
B,8,3928037,silence.wav,None,1000,10,4140053,330
B,8,3928037,sinestep5_catch.wav,2,290,10,4142053,331
B,8,3928037,sinestep7.wav,None,1000,10,4144054,1040
B,8,3928037,sinestep7.wav,None,1000,10,4146054,340
B,8,3928037,vowelstep3.wav,None,1000,10,4148054,319
B,8,3928037,sinestep1_catch.wav,2,369,10,4150054,319
B,8,3928037,vowelstep5.wav,None,1000,10,4152054,949
B,8,3928037,sinestep1.wav,None,1000,10,4154054,329
B,8,3928037,vowelstep1.wav,None,1000,10,4156054,329
B,8,3928037,vowelstep1.wav,None,1000,10,4158054,327
B,8,3928037,sinestep5.wav,None,1000,10,4160054,339
B,8,3928037,silence.wav,None,1000,10,4162055,320
B,8,3928037,silence.wav,None,1000,10,4164055,318
B,8,3928037,vowelstep1.wav,None,1000,10,4166054,319
B,8,3928037,vowelstep1.wav,None,1000,10,4168054,329
B,8,3928037,silence.wav,None,1000,10,4170054,328
B,8,3928037,vowelstep1_catch.wav,2,236,10,4172054,328
B,8,3928037,sinestep7.wav,None,1000,10,4174054,1092
B,8,3928037,sinestep1.wav,None,1000,10,4176054,318
B,8,3928037,vowelstep1.wav,None,1000,10,4178054,318
B,8,3928037,vowelstep3.wav,None,1000,10,4180055,317
B,8,3928037,sinestep3.wav,None,1000,10,4182055,317
B,8,3928037,silence.wav,None,1000,10,4184055,323
B,8,3928037,vowelstep3.wav,None,1000,10,4186055,328
B,8,3928037,silence.wav,None,1000,10,4188055,332
B,8,3928037,vowelstep3.wav,None,1000,10,4190054,313
B,8,3928037,sinestep5.wav,None,1000,10,4192054,312
B,8,3928037,vowelstep3_catch.wav,2,269,10,4194054,317
B,8,3928037,sinestep3.wav,None,1000,10,4196055,1055
B,8,3928037,sinestep1.wav,None,1000,10,4198055,328
B,8,3928037,vowelstep3.wav,None,1000,10,4200055,322
B,8,3928037,vowelstep1.wav,None,1000,10,4202055,326
B,8,3928037,vowelstep5_catch.wav,2,289,10,4204055,316
B,8,3928037,vowelstep1.wav,None,1000,10,4206055,1026
B,8,3928037,vowelstep5.wav,None,1000,10,4208055,316
B,8,3928037,sinestep7.wav,None,1000,10,4210055,317
B,8,3928037,vowelstep7.wav,None,1000,10,4212054,326
B,8,3928037,vowelstep1_catch.wav,2,212,10,4214055,326
B,8,3928037,sinestep1.wav,None,1000,10,4216055,1112
B,8,3928037,vowelstep1.wav,None,1000,10,4218055,333
B,8,3928037,sinestep5.wav,None,1000,10,4220055,314
B,8,3928037,vowelstep7.wav,None,1000,10,4222055,315
B,8,3928037,sinestep7.wav,None,1000,10,4224055,315
B,8,3928037,vowelstep7_catch.wav,2,174,10,4226055,325
B,8,3928037,sinestep3.wav,None,1000,10,4228055,1150
B,8,3928037,vowelstep3.wav,None,1000,10,4230055,335
B,8,3928037,sinestep5.wav,None,1000,10,4232056,335
B,8,3928037,vowelstep1.wav,None,1000,10,4234056,314
B,8,3928037,vowelstep7.wav,None,1000,10,4236056,314
B,8,3928037,vowelstep1.wav,None,1000,10,4238055,314
B,8,3928037,sinestep7.wav,None,1000,10,4240055,324
B,8,3928037,sinestep3.wav,None,1000,10,4242055,324
B,8,3928037,silence.wav,None,1000,10,4244055,324
B,8,3928037,vowelstep1.wav,None,1000,10,4246055,334
F,9,4319158,sinestep1.wav,None,1000,10,4319174,0
F,9,4319158,vowelstep5.wav,None,1000,10,4321174,340
F,9,4319158,vowelstep3.wav,None,1000,10,4323174,316
F,9,4319158,sinestep5.wav,None,1000,10,4325174,316
F,9,4319158,vowelstep7.wav,None,1000,10,4327173,315
F,9,4319158,silence.wav,None,1000,10,4329173,331
F,9,4319158,vowelstep5.wav,None,1000,10,4331173,330
F,9,4319158,sinestep3.wav,None,1000,10,4333173,331
F,9,4319158,sinestep3.wav,None,1000,10,4335173,311
F,9,4319158,silence.wav,None,1000,10,4337174,319
F,9,4319158,vowelstep7.wav,None,1000,10,4339174,318
F,9,4319158,vowelstep7.wav,None,1000,10,4341174,319
F,9,4319158,vowelstep1_catch.wav,1,402,10,4343174,328
F,9,4319158,vowelstep3_catch.wav,1,440,10,4345174,927
F,9,4319158,vowelstep1.wav,None,1000,10,4347174,888
F,9,4319158,sinestep5.wav,None,1000,10,4349173,338
F,9,4319158,sinestep5.wav,None,1000,10,4351173,319
F,9,4319158,vowelstep7.wav,None,1000,10,4353174,319
F,9,4319158,sinestep3.wav,None,1000,10,4355174,317
F,9,4319158,sinestep7.wav,None,1000,10,4357174,328
F,9,4319158,vowelstep5_catch.wav,1,378,10,4359174,328
F,9,4319158,sinestep1.wav,None,1000,10,4361174,950
F,9,4319158,vowelstep7_catch.wav,1,294,10,4363174,338
F,9,4319158,vowelstep3.wav,None,1000,10,4365174,1013
F,9,4319158,sinestep1.wav,None,1000,10,4367174,318
F,9,4319158,sinestep7.wav,None,1000,10,4369174,319
F,9,4319158,silence.wav,None,1000,10,4371175,328
F,9,4319158,sinestep7.wav,None,1000,10,4373175,325
F,9,4319158,vowelstep1.wav,None,1000,10,4375174,326
F,9,4319158,vowelstep3.wav,None,1000,10,4377174,337
F,9,4319158,vowelstep7_catch.wav,1,251,10,4379174,317
F,9,4319158,sinestep5.wav,None,1000,10,4381174,1065
F,9,4319158,sinestep3.wav,None,1000,10,4383174,313
F,9,4319158,vowelstep3.wav,None,1000,10,4385174,317
F,9,4319158,silence.wav,None,1000,10,4387174,322
F,9,4319158,vowelstep1.wav,None,1000,10,4389175,322
F,9,4319158,vowelstep1.wav,None,1000,10,4391175,331
F,9,4319158,vowelstep5_catch.wav,1,275,10,4393175,316
F,9,4319158,silence.wav,None,1000,10,4395175,1039
F,9,4319158,vowelstep3.wav,None,1000,10,4397175,316
F,9,4319158,vowelstep5.wav,None,1000,10,4399174,325
F,9,4319158,vowelstep3_catch.wav,1,419,10,4401174,325
F,9,4319158,vowelstep3.wav,None,1000,10,4403174,906
F,9,4319158,sinestep7.wav,None,1000,10,4405174,325
F,9,4319158,vowelstep1.wav,None,1000,10,4407175,304
F,9,4319158,sinestep1.wav,None,1000,10,4409175,315
F,9,4319158,vowelstep1_catch.wav,1,179,10,4411175,314
F,9,4319158,vowelstep5.wav,None,1000,10,4413175,1134
F,9,4319158,sinestep7.wav,None,1000,10,4415175,324
F,9,4319158,vowelstep7.wav,None,1000,10,4417175,325
F,9,4319158,vowelstep3.wav,None,1000,10,4419175,325
F,9,4319158,sinestep3.wav,None,1000,10,4421175,334
F,9,4319158,silence.wav,None,1000,10,4423175,314
F,9,4319158,sinestep1.wav,None,1000,10,4425175,314
F,9,4319158,sinestep1.wav,None,1000,10,4427175,313
F,9,4319158,silence.wav,None,1000,10,4429175,324
F,9,4319158,sinestep7.wav,None,1000,10,4431175,323
F,9,4319158,vowelstep3.wav,None,1000,10,4433175,324
F,9,4319158,sinestep3.wav,None,1000,10,4435175,303
F,9,4319158,vowelstep3.wav,None,1000,10,4437175,313
F,9,4319158,vowelstep7.wav,None,1000,10,4439175,313
F,9,4319158,vowelstep7.wav,None,1000,10,4441176,323
F,9,4319158,vowelstep5.wav,None,1000,10,4443176,323
F,9,4319158,sinestep1.wav,None,1000,10,4445176,318
F,9,4319158,silence.wav,None,1000,10,4447175,322
F,9,4319158,sinestep1.wav,None,1000,10,4449175,329
F,9,4319158,sinestep3.wav,None,1000,10,4451175,328
F,9,4319158,sinestep1_catch.wav,1,263,10,4453175,328
F,9,4319158,sinestep3.wav,None,1000,10,4455175,1045
F,9,4319158,sinestep3.wav,None,1000,10,4457175,323
F,9,4319158,silence.wav,None,1000,10,4459176,322
F,9,4319158,silence.wav,None,1000,10,4461176,321
F,9,4319158,sinestep7.wav,None,1000,10,4463176,331
F,9,4319158,sinestep5.wav,None,1000,10,4465176,311
F,9,4319158,vowelstep1.wav,None,1000,10,4467176,331
F,9,4319158,sinestep7.wav,None,1000,10,4469176,322
F,9,4319158,silence.wav,None,1000,10,4471175,321
F,9,4319158,sinestep3_catch.wav,1,248,10,4473175,321
F,9,4319158,vowelstep5.wav,None,1000,10,4475175,1072
F,9,4319158,sinestep3.wav,None,1000,10,4477176,330
F,9,4319158,vowelstep5.wav,None,1000,10,4479176,331
F,9,4319158,sinestep3.wav,None,1000,10,4481176,330
F,9,4319158,vowelstep3.wav,None,1000,10,4483176,340
F,9,4319158,vowelstep1.wav,None,1000,10,4485176,320
F,9,4319158,sinestep5.wav,None,1000,10,4487176,321
F,9,4319158,vowelstep5.wav,None,1000,10,4489176,271
F,9,4319158,vowelstep1.wav,None,1000,10,4491176,330
F,9,4319158,vowelstep1.wav,None,1000,10,4493177,330
F,9,4319158,sinestep7.wav,None,1000,10,4495176,329
F,9,4319158,vowelstep1.wav,None,1000,10,4497176,339
F,9,4319158,sinestep5.wav,None,1000,10,4499176,309
F,9,4319158,vowelstep7.wav,None,1000,10,4501176,319
F,9,4319158,sinestep1.wav,None,1000,10,4503176,319
F,9,4319158,vowelstep7.wav,None,1000,10,4505176,326
F,9,4319158,sinestep5.wav,None,1000,10,4507176,329
F,9,4319158,vowelstep5.wav,None,1000,10,4509176,329
F,9,4319158,silence.wav,None,1000,10,4511177,335
F,9,4319158,sinestep7.wav,None,1000,10,4513177,339
F,9,4319158,vowelstep5.wav,None,1000,10,4515177,314
F,9,4319158,vowelstep7.wav,None,1000,10,4517177,314
F,9,4319158,silence.wav,None,1000,10,4519177,313
F,9,4319158,vowelstep1.wav,None,1000,10,4521176,329
F,9,4319158,vowelstep7.wav,None,1000,10,4523176,327
F,9,4319158,vowelstep7.wav,None,1000,10,4525176,339
F,9,4319158,vowelstep3.wav,None,1000,10,4527176,308
F,9,4319158,vowelstep3.wav,None,1000,10,4529177,318
F,9,4319158,silence.wav,None,1000,10,4531177,316
F,9,4319158,sinestep7.wav,None,1000,10,4533177,327
F,9,4319158,sinestep1.wav,None,1000,10,4535177,327
F,9,4319158,silence.wav,None,1000,10,4537177,328
F,9,4319158,vowelstep1.wav,None,1000,10,4539177,328
F,9,4319158,sinestep5_catch.wav,1,278,10,4541177,337
F,9,4319158,sinestep1.wav,None,1000,10,4543177,1038
F,9,4319158,silence.wav,None,1000,10,4545176,317
F,9,4319158,sinestep7.wav,None,1000,10,4547177,326
F,9,4319158,sinestep7.wav,None,1000,10,4549177,326
F,9,4319158,silence.wav,None,1000,10,4551177,327
F,9,4319158,vowelstep5.wav,None,1000,10,4553160,334
F,9,4319158,sinestep7.wav,None,1000,10,4555177,319
F,9,4319158,sinestep5.wav,None,1000,10,4557177,317
F,9,4319158,sinestep5.wav,None,1000,10,4559177,314
F,9,4319158,silence.wav,None,1000,10,4561177,316
F,9,4319158,vowelstep3.wav,None,1000,10,4563178,325
F,9,4319158,vowelstep3.wav,None,1000,10,4565178,325
F,9,4319158,silence.wav,None,1000,10,4567178,325
F,9,4319158,sinestep1.wav,None,1000,10,4569161,301
F,9,4319158,sinestep1.wav,None,1000,10,4571161,336
F,9,4319158,vowelstep5.wav,None,1000,10,4573177,335
F,9,4319158,silence.wav,None,1000,10,4575177,314
F,9,4319158,sinestep5.wav,None,1000,10,4577177,325
F,9,4319158,sinestep5.wav,None,1000,10,4579177,321
F,9,4319158,sinestep5.wav,None,1000,10,4581178,320
F,9,4319158,sinestep7.wav,None,1000,10,4583178,329
F,9,4319158,sinestep7_catch.wav,1,198,10,4585161,315
F,9,4319158,sinestep7_catch.wav,1,76,10,4587161,1134
F,9,4319158,sinestep1.wav,None,1000,10,4589161,1267
F,9,4319158,vowelstep7.wav,None,1000,10,4591178,343
F,9,4319158,sinestep3.wav,None,1000,10,4593177,324
F,9,4319158,sinestep3.wav,None,1000,10,4595177,324
F,9,4319158,silence.wav,None,1000,10,4597177,304
F,9,4319158,sinestep5_catch.wav,1,275,10,4599178,314
F,9,4319158,sinestep5.wav,None,1000,10,4601161,1037
F,9,4319158,silence.wav,None,1000,10,4603161,343
F,9,4319158,vowelstep5.wav,None,1000,10,4605161,343
F,9,4319158,silence.wav,None,1000,10,4607161,343
F,9,4319158,sinestep1.wav,None,1000,10,4609178,323
F,9,4319158,sinestep3.wav,None,1000,10,4611178,332
F,9,4319158,vowelstep3.wav,None,1000,10,4613178,314
F,9,4319158,silence.wav,None,1000,10,4615178,312
F,9,4319158,sinestep5.wav,None,1000,10,4617162,312
F,9,4319158,vowelstep5.wav,None,1000,10,4619162,342
F,9,4319158,vowelstep5.wav,None,1000,10,4621162,341
F,9,4319158,vowelstep1.wav,None,1000,10,4623162,341
F,9,4319158,sinestep3.wav,None,1000,10,4625161,331
F,9,4319158,silence.wav,None,1000,10,4627161,331
F,9,4319158,sinestep3_catch.wav,1,224,10,4629178,332
F,9,4319158,vowelstep1.wav,None,1000,10,4631178,1087
F,9,4319158,vowelstep7.wav,None,1000,10,4633162,320
F,9,4319158,vowelstep7.wav,None,1000,10,4635162,341
F,9,4319158,vowelstep1.wav,None,1000,10,4637162,351