block,count_main_sequence,first_trial_timestamp,fname,response_catch_response,response_time_catch_response,subject_nr,time_stimulus,time_to_pad,timing
P,NA,203820,vowelstep1_catch.wav,1,787,11,203827,0,
P,NA,203820,sinestep7_catch.wav,1,409,11,205827,650,
P,NA,203820,vowelstep5_catch.wav,1,44,11,207827,1029,
P,NA,203820,sinestep7.wav,1,137,11,209827,1398,
P,NA,203820,sinestep7.wav,1,213,11,211827,1313,
P,NA,203820,sinestep3.wav,1,76,11,213826,1238,
P,NA,203820,sinestep1.wav,1,199,11,215826,1376,
P,NA,203820,vowelstep7.wav,1,245,11,217826,1261,
P,NA,203820,vowelstep3.wav,1,199,11,219827,1194,
P,NA,203820,silence.wav,None,1000,11,221827,1237,
P,NA,203820,sinestep1.wav,1,208,11,223827,440,
P,NA,203820,vowelstep1.wav,1,307,11,225827,1242,
P,NA,203820,sinestep5.wav,1,252,11,227827,1143,
P,NA,203820,sinestep1.wav,1,223,11,229827,1197,
P,NA,203820,sinestep1.wav,1,152,11,231827,1237,
P,NA,203820,vowelstep1.wav,1,224,11,233827,1278,
P,NA,203820,silence.wav,None,1000,11,235828,1215,
P,NA,203820,silence.wav,None,1000,11,237827,439,
P,NA,203820,silence.wav,None,1000,11,239827,448,
P,NA,203820,sinestep3_catch.wav,1,145,11,241827,449,
P,NA,203820,vowelstep7.wav,1,208,11,243827,1305,
P,NA,203820,silence.wav,None,1000,11,245827,1242,
P,NA,203820,vowelstep7.wav,1,232,11,247827,439,
P,NA,203820,vowelstep3.wav,1,334,11,249827,1207,
P,NA,203820,silence.wav,None,1000,11,251827,1102,
P,NA,203820,vowelstep1.wav,1,166,11,253828,439,
P,NA,203820,sinestep3.wav,1,162,11,255828,1282,
P,NA,203820,vowelstep1.wav,1,321,11,257828,1283,
P,NA,203820,silence.wav,None,1000,11,259828,1126,
P,NA,203820,sinestep7.wav,1,241,11,261827,427,
P,NA,203820,sinestep5_catch.wav,1,465,11,263827,1197,
P,NA,203820,silence.wav,None,1000,11,265827,963,
P,NA,203820,sinestep7.wav,1,175,11,267827,448,
P,NA,203820,sinestep5.wav,1,300,11,269827,1270,
P,NA,203820,sinestep3.wav,1,274,11,271828,1146,
P,NA,203820,sinestep1_catch.wav,1,331,11,273828,1173,
P,NA,203820,vowelstep3_catch.wav,1,326,11,275828,1102,
P,NA,203820,vowelstep5_catch.wav,1,116,11,277828,1109,
P,NA,203820,vowelstep7.wav,1,227,11,279828,1318,
P,NA,203820,silence.wav,None,1000,11,281828,1207,
P,NA,203820,vowelstep7_catch.wav,1,216,11,283828,447,
P,NA,203820,vowelstep3.wav,1,269,11,285827,1228,
P,NA,203820,silence.wav,None,1000,11,287827,1178,
P,NA,203820,sinestep7_catch.wav,1,169,11,289828,427,
P,NA,203820,sinestep7.wav,1,288,11,291828,1266,
P,NA,203820,vowelstep5.wav,1,307,11,293828,1146,
P,NA,203820,vowelstep3.wav,1,412,11,295828,1128,
P,NA,203820,sinestep5.wav,1,375,11,297828,1033,
P,NA,203820,sinestep5_catch.wav,1,416,11,299828,1067,
P,NA,203820,sinestep3.wav,1,215,11,301828,1029,
P,NA,203820,silence.wav,None,1000,11,303828,1207,
P,NA,203820,vowelstep7.wav,1,247,11,305829,435,
P,NA,203820,sinestep3_catch.wav,1,429,11,307829,1187,
P,NA,203820,vowelstep5.wav,1,258,11,309828,1004,
P,NA,203820,silence.wav,None,1000,11,311828,1186,
P,NA,203820,sinestep1.wav,1,53,11,313828,444,
P,NA,203820,vowelstep1.wav,1,173,11,315828,1389,
P,NA,203820,silence.wav,None,1000,11,317828,1270,
P,NA,203820,silence.wav,None,1000,11,319828,434,
P,NA,203820,silence.wav,None,1000,11,321828,433,
P,NA,203820,sinestep1_catch.wav,1,134,11,323829,434,
P,NA,203820,sinestep1.wav,1,270,11,325829,1298,
P,NA,203820,silence.wav,None,1000,11,327829,1172,
P,NA,203820,vowelstep1_catch.wav,1,274,11,329829,443,
P,NA,203820,vowelstep5.wav,1,290,11,331829,1177,
P,NA,203820,sinestep5.wav,1,269,11,333828,1163,
P,NA,203820,vowelstep3.wav,1,268,11,335828,1184,
P,NA,203820,silence.wav,None,1000,11,337828,1195,
P,NA,203820,silence.wav,None,1000,11,339828,443,
P,NA,203820,sinestep7.wav,1,218,11,341829,443,
P,NA,203820,vowelstep5.wav,1,245,11,343829,1223,
P,NA,203820,silence.wav,None,1000,11,345829,1204,
P,NA,203820,vowelstep3_catch.wav,1,264,11,347829,452,
P,NA,203820,silence.wav,None,1000,11,349829,1188,
P,NA,203820,vowelstep5.wav,1,155,11,351829,463,
P,NA,203820,vowelstep5_catch.wav,1,140,11,353829,1276,
P,NA,203820,vowelstep7_catch.wav,1,253,11,355829,1300,
P,NA,203820,sinestep3.wav,1,318,11,357829,1189,
P,NA,203820,vowelstep5.wav,1,384,11,359829,1133,
P,NA,203820,vowelstep3.wav,1,186,11,361829,1066,
P,NA,203820,silence.wav,None,1000,11,363829,1262,
P,NA,203820,sinestep3.wav,1,235,11,365829,462,
P,NA,203820,silence.wav,None,1000,11,367829,1204,
P,NA,203820,sinestep7_catch.wav,1,191,11,369829,440,
P,NA,203820,sinestep5_catch.wav,1,283,11,371829,1250,
P,NA,203820,sinestep5.wav,1,221,11,373829,1168,
P,NA,203820,sinestep5.wav,1,199,11,375830,1229,
P,NA,203820,vowelstep7.wav,1,292,11,377830,1250,
P,NA,203820,sinestep3_catch.wav,1,325,11,379830,1155,
P,NA,203820,vowelstep1.wav,1,267,11,381830,1115,
A,0,786478,sinestep5_catch.wav,1,550,11,786486,0,1.285
A,0,786478,vowelstep1.wav,None,1000,11,788486,778,3.285
A,0,786478,vowelstep3.wav,None,1000,11,790486,335,5.285
A,0,786478,sinestep1.wav,None,1000,11,792486,334,7.285
A,0,786478,sinestep5_catch.wav,1,152,11,794485,344,9.285
A,0,786478,sinestep7.wav,None,1000,11,796486,1190,11.285
A,0,786478,sinestep3.wav,None,1000,11,798486,344,13.285
A,0,786478,silence.wav,None,1000,11,800486,352,15.285
A,0,786478,vowelstep7.wav,None,1000,11,802486,354,17.285
A,0,786478,sinestep7.wav,None,1000,11,804486,353,19.285
A,0,786478,vowelstep5_catch.wav,1,166,11,806486,335,21.285
A,0,786478,sinestep7.wav,None,1000,11,808486,1178,23.285
A,0,786478,sinestep3.wav,None,1000,11,810486,343,25.285
A,0,786478,silence.wav,None,1000,11,812486,341,27.285
A,0,786478,sinestep3.wav,None,1000,11,814487,340,29.285
A,0,786478,sinestep5_catch.wav,1,64,11,816487,351,31.285
A,0,786478,sinestep1.wav,None,1000,11,818487,1269,33.285
A,0,786478,sinestep1.wav,None,1000,11,820486,362,35.285
A,0,786478,sinestep5.wav,None,1000,11,822486,342,37.285
A,0,786478,vowelstep3.wav,None,1000,11,824486,343,39.285
A,0,786478,vowelstep5.wav,None,1000,11,826486,339,41.285
A,0,786478,vowelstep3.wav,None,1000,11,828486,353,43.285
A,0,786478,vowelstep1.wav,None,1000,11,830487,352,45.285
A,0,786478,vowelstep3.wav,None,1000,11,832487,352,47.285
A,0,786478,sinestep3.wav,None,1000,11,834487,362,49.285
A,0,786478,sinestep7.wav,None,1000,11,836487,342,51.285
A,0,786478,sinestep5.wav,None,1000,11,838487,342,53.285
A,0,786478,vowelstep7_catch.wav,1,22,11,840487,342,55.285
A,0,786478,silence.wav,None,1000,11,842487,1330,57.285
A,0,786478,vowelstep3.wav,None,1000,11,844486,351,59.285
A,0,786478,vowelstep1.wav,None,1000,11,846486,353,61.285
A,0,786478,silence.wav,None,1000,11,848487,361,63.285
A,0,786478,sinestep3.wav,None,1000,11,850487,328,65.285
A,0,786478,sinestep7.wav,None,1000,11,852487,342,67.285
A,0,786478,sinestep5.wav,None,1000,11,854487,339,69.285
A,0,786478,sinestep5.wav,None,1000,11,856487,351,71.285
A,0,786478,sinestep7.wav,None,1000,11,858487,350,73.285
A,0,786478,sinestep1.wav,None,1000,11,860487,351,75.285
A,0,786478,sinestep5.wav,None,1000,11,862487,361,77.285
A,0,786478,vowelstep1.wav,None,1000,11,864487,331,79.285
A,0,786478,sinestep1.wav,None,1000,11,866488,340,81.285
A,0,786478,vowelstep5.wav,None,1000,11,868487,338,83.285
A,0,786478,sinestep1.wav,None,1000,11,870487,350,85.285
A,0,786478,silence.wav,None,1000,11,872487,350,87.285
A,0,786478,vowelstep1.wav,None,1000,11,874487,351,89.285
A,0,786478,sinestep3.wav,None,1000,11,876487,352,91.285
A,0,786478,vowelstep5.wav,None,1000,11,878487,361,93.285
A,0,786478,vowelstep5.wav,None,1000,11,880487,340,95.285
A,0,786478,vowelstep5.wav,None,1000,11,882488,341,97.285
A,0,786478,vowelstep7.wav,None,1000,11,884488,339,99.285
A,0,786478,vowelstep3.wav,None,1000,11,886488,350,101.285
A,0,786478,sinestep1.wav,None,1000,11,888488,344,103.285
A,0,786478,sinestep1.wav,None,1000,11,890488,358,105.285
A,0,786478,vowelstep7.wav,None,1000,11,892487,329,107.285
A,0,786478,vowelstep1.wav,None,1000,11,894487,339,109.285
A,0,786478,vowelstep7.wav,None,1000,11,896487,339,111.285
A,0,786478,silence.wav,None,1000,11,898487,348,113.285
A,0,786478,sinestep1.wav,None,1000,11,900488,345,115.285
A,0,786478,vowelstep1.wav,None,1000,11,902488,348,117.285
A,0,786478,silence.wav,None,1000,11,904488,348,119.285
A,0,786478,vowelstep1.wav,None,1000,11,906488,337,121.285
A,0,786478,vowelstep3.wav,None,1000,11,908488,337,123.285
A,0,786478,vowelstep1.wav,None,1000,11,910488,336,125.285
A,0,786478,sinestep7.wav,None,1000,11,912488,338,127.285
A,0,786478,silence.wav,None,1000,11,914488,349,129.285
A,0,786478,vowelstep1.wav,None,1000,11,916487,349,131.285
A,0,786478,silence.wav,None,1000,11,918488,357,133.285
A,0,786478,sinestep7.wav,None,1000,11,920488,357,135.285
A,0,786478,vowelstep5.wav,None,1000,11,922488,336,137.285
A,0,786478,sinestep7.wav,None,1000,11,924488,338,139.285
A,0,786478,sinestep3.wav,None,1000,11,926488,336,141.285
A,0,786478,vowelstep5.wav,None,1000,11,928488,348,143.285
A,0,786478,silence.wav,None,1000,11,930488,344,145.285
A,0,786478,sinestep3.wav,None,1000,11,932488,345,147.285
A,0,786478,sinestep5.wav,None,1000,11,934488,356,149.285
A,0,786478,sinestep3.wav,None,1000,11,936489,335,151.285
A,0,786478,vowelstep3.wav,None,1000,11,938489,334,153.285
A,0,786478,sinestep3.wav,None,1000,11,940488,336,155.285
A,0,786478,vowelstep7_catch.wav,1,123,11,942488,344,157.285
A,0,786478,vowelstep7.wav,None,1000,11,944488,1219,159.285
A,0,786478,vowelstep5.wav,None,1000,11,946488,288,161.285
A,0,786478,sinestep5.wav,None,1000,11,948488,355,163.285
A,0,786478,silence.wav,None,1000,11,950488,335,165.285
A,0,786478,sinestep5.wav,None,1000,11,952489,337,167.285
A,0,786478,vowelstep5_catch.wav,1,146,11,954489,333,169.285
A,0,786478,silence.wav,None,1000,11,956489,1183,171.285
A,0,786478,sinestep7.wav,None,1000,11,958489,345,173.285
A,0,786478,sinestep5.wav,None,1000,11,960489,341,175.285
A,0,786478,sinestep7.wav,None,1000,11,962489,355,177.285
A,0,786478,vowelstep3.wav,None,1000,11,964488,325,179.285
A,0,786478,sinestep5.wav,None,1000,11,966488,334,181.285
A,0,786478,vowelstep1.wav,None,1000,11,968488,334,183.285
A,0,786478,vowelstep5.wav,None,1000,11,970489,343,185.285
A,0,786478,sinestep5.wav,None,1000,11,972489,343,187.285
A,0,786478,vowelstep1.wav,None,1000,11,974489,343,189.285
A,0,786478,silence.wav,None,1000,11,976489,344,191.285
A,0,786478,sinestep1.wav,None,1000,11,978489,334,193.285
A,0,786478,vowelstep5.wav,None,1000,11,980489,335,195.285
A,0,786478,sinestep3.wav,None,1000,11,982489,333,197.285
A,0,786478,silence.wav,None,1000,11,984489,345,199.285
A,0,786478,vowelstep3.wav,None,1000,11,986489,343,201.285
A,0,786478,vowelstep3_catch.wav,1,225,11,988489,344,203.285
A,0,786478,vowelstep5.wav,None,1000,11,990489,1117,205.285
A,0,786478,vowelstep1_catch.wav,1,228,11,992489,323,207.285
A,0,786478,silence.wav,None,1000,11,994489,1103,209.285
A,0,786478,sinestep3.wav,None,1000,11,996489,331,211.285
A,0,786478,vowelstep5.wav,None,1000,11,998489,340,213.285
A,0,786478,silence.wav,None,1000,11,1000489,341,215.285
A,0,786478,sinestep5.wav,None,1000,11,1002489,342,217.285
A,0,786478,vowelstep7.wav,None,1000,11,1004489,342,219.285
A,0,786478,silence.wav,None,1000,11,1006490,329,221.285
A,0,786478,vowelstep3.wav,None,1000,11,1008490,331,223.285
A,0,786478,sinestep7.wav,None,1000,11,1010490,331,225.285
A,0,786478,silence.wav,None,1000,11,1012489,330,227.285
A,0,786478,vowelstep3.wav,None,1000,11,1014489,341,229.285
A,0,786478,vowelstep5.wav,None,1000,11,1016489,336,231.285
A,0,786478,vowelstep7.wav,None,1000,11,1018489,341,233.285
A,0,786478,vowelstep3.wav,None,1000,11,1020489,350,235.285
A,0,786478,vowelstep5.wav,None,1000,11,1022490,326,237.285
A,0,786478,sinestep1_catch.wav,1,99,11,1024490,330,239.285
A,0,786478,sinestep3.wav,None,1000,11,1026490,1230,241.285
A,0,786478,sinestep1.wav,None,1000,11,1028490,340,243.285
A,0,786478,sinestep3_catch.wav,1,81,11,1030490,339,245.285
A,0,786478,sinestep7.wav,None,1000,11,1032490,1253,247.285
A,0,786478,vowelstep1.wav,None,1000,11,1034490,314,249.285
A,0,786478,sinestep3.wav,None,1000,11,1036489,328,251.285
A,0,786478,vowelstep7.wav,None,1000,11,1038489,344,253.285
A,0,786478,silence.wav,None,1000,11,1040490,358,255.285
A,0,786478,sinestep1.wav,None,1000,11,1042490,334,257.285
A,0,786478,silence.wav,None,1000,11,1044490,338,259.285
A,0,786478,vowelstep5.wav,None,1000,11,1046490,335,261.285
A,0,786478,sinestep5_catch.wav,1,168,11,1048490,336,263.285
A,0,786478,vowelstep7.wav,None,1000,11,1050490,1177,265.285
A,0,786478,sinestep3.wav,None,1000,11,1052490,326,267.285
A,0,786478,vowelstep1.wav,None,1000,11,1054490,328,269.285
A,0,786478,vowelstep3.wav,None,1000,11,1056490,327,271.285
A,0,786478,sinestep7_catch.wav,1,184,11,1058491,333,273.285
A,0,786478,silence.wav,None,1000,11,1060490,1150,275.285
A,0,786478,vowelstep7.wav,None,1000,11,1062490,345,277.285
A,0,786478,sinestep7.wav,None,1000,11,1064490,346,279.285
A,0,786478,sinestep1.wav,None,1000,11,1066490,346,281.285
A,0,786478,vowelstep7.wav,None,1000,11,1068490,355,283.285
A,0,786478,sinestep5.wav,None,1000,11,1070490,335,285.285
A,0,786478,sinestep5.wav,None,1000,11,1072490,334,287.285
A,0,786478,sinestep7_catch.wav,1,108,11,1074490,334,289.285
A,0,786478,sinestep5.wav,None,1000,11,1076491,1234,291.285
A,0,786478,silence.wav,None,1000,11,1078491,343,293.285
A,0,786478,vowelstep3.wav,None,1000,11,1080491,341,295.285
A,0,786478,silence.wav,None,1000,11,1082491,353,297.285
A,0,786478,vowelstep1.wav,None,1000,11,1084491,325,299.285
A,0,786478,sinestep1.wav,None,1000,11,1086490,334,301.285
A,0,786478,sinestep7.wav,None,1000,11,1088490,335,303.285
A,0,786478,vowelstep7.wav,None,1000,11,1090490,344,305.285
A,0,786478,sinestep1_catch.wav,1,431,11,1092491,343,307.285
A,0,786478,silence.wav,None,1000,11,1094491,907,309.285
A,0,786478,silence.wav,None,1000,11,1096491,343,311.285
A,0,786478,vowelstep7.wav,None,1000,11,1098491,323,313.285
A,0,786478,sinestep1.wav,None,1000,11,1100491,333,315.285
A,0,786478,vowelstep7.wav,None,1000,11,1102491,333,317.285
A,0,786478,vowelstep7.wav,None,1000,11,1104491,342,319.285
E,1,1167529,vowelstep7.wav,None,1000,11,1167542,0,1.285
E,1,1167529,sinestep3.wav,None,1000,11,1169542,329,3.285
E,1,1167529,sinestep5.wav,None,1000,11,1171542,329,5.285
E,1,1167529,sinestep1.wav,None,1000,11,1173542,335,7.285
E,1,1167529,sinestep5.wav,None,1000,11,1175542,337,9.285
E,1,1167529,silence.wav,None,1000,11,1177542,341,11.285
E,1,1167529,vowelstep1.wav,None,1000,11,1179542,342,13.285
E,1,1167529,vowelstep7.wav,None,1000,11,1181542,331,15.285
E,1,1167529,vowelstep1.wav,None,1000,11,1183542,330,17.285
E,1,1167529,sinestep1_catch.wav,1,97,11,1185542,330,19.285
E,1,1167529,vowelstep5.wav,None,1000,11,1187542,1232,21.285
E,1,1167529,sinestep5.wav,None,1000,11,1189542,339,23.285
E,1,1167529,vowelstep5.wav,None,1000,11,1191542,338,25.285
E,1,1167529,vowelstep3.wav,None,1000,11,1193542,341,27.285
E,1,1167529,sinestep1.wav,None,1000,11,1195542,320,29.285
E,1,1167529,vowelstep5.wav,None,1000,11,1197543,330,31.285
E,1,1167529,silence.wav,None,1000,11,1199543,326,33.285
E,1,1167529,silence.wav,None,1000,11,1201543,330,35.285
E,1,1167529,sinestep3.wav,None,1000,11,1203543,340,37.285
E,1,1167529,sinestep3.wav,None,1000,11,1205542,337,39.285
E,1,1167529,sinestep3.wav,None,1000,11,1207542,339,41.285
E,1,1167529,sinestep1.wav,None,1000,11,1209542,324,43.285
E,1,1167529,vowelstep1.wav,None,1000,11,1211542,330,45.285
E,1,1167529,sinestep1.wav,None,1000,11,1213542,325,47.285
E,1,1167529,vowelstep7.wav,None,1000,11,1215543,324,49.285
E,1,1167529,vowelstep5.wav,None,1000,11,1217543,338,51.285
E,1,1167529,sinestep7.wav,None,1000,11,1219543,336,53.285
E,1,1167529,sinestep1.wav,None,1000,11,1221543,347,55.285
E,1,1167529,vowelstep5.wav,None,1000,11,1223543,345,57.285
E,1,1167529,sinestep3.wav,None,1000,11,1225543,329,59.285
E,1,1167529,vowelstep1.wav,None,1000,11,1227543,327,61.285
E,1,1167529,vowelstep5.wav,None,1000,11,1229542,324,63.285
E,1,1167529,vowelstep3.wav,None,1000,11,1231542,337,65.285
E,1,1167529,sinestep1.wav,None,1000,11,1233543,337,67.285
E,1,1167529,vowelstep3.wav,None,1000,11,1235543,336,69.285
E,1,1167529,silence.wav,None,1000,11,1237543,347,71.285
E,1,1167529,vowelstep3.wav,None,1000,11,1239543,328,73.285
E,1,1167529,sinestep3_catch.wav,1,346,11,1241543,326,75.285
E,1,1167529,sinestep3.wav,None,1000,11,1243543,979,77.285
E,1,1167529,vowelstep3.wav,None,1000,11,1245543,336,79.285
E,1,1167529,vowelstep7.wav,None,1000,11,1247543,332,81.285
E,1,1167529,silence.wav,None,1000,11,1249543,336,83.285
E,1,1167529,sinestep3.wav,None,1000,11,1251544,342,85.285
E,1,1167529,silence.wav,None,1000,11,1253544,324,87.285
E,1,1167529,sinestep1.wav,None,1000,11,1255543,325,89.285
E,1,1167529,sinestep5_catch.wav,1,229,11,1257543,324,91.285
E,1,1167529,vowelstep3.wav,None,1000,11,1259543,1100,93.285
E,1,1167529,sinestep5.wav,None,1000,11,1261543,335,95.285
E,1,1167529,vowelstep7.wav,None,1000,11,1263543,335,97.285
E,1,1167529,sinestep1.wav,None,1000,11,1265543,345,99.285
E,1,1167529,sinestep5.wav,None,1000,11,1267544,314,101.285
E,1,1167529,sinestep5.wav,None,1000,11,1269544,324,103.285
E,1,1167529,vowelstep7.wav,None,1000,11,1271544,324,105.285
E,1,1167529,vowelstep3.wav,None,1000,11,1273544,331,107.285
E,1,1167529,vowelstep7.wav,None,1000,11,1275544,333,109.285
E,1,1167529,sinestep5.wav,None,1000,11,1277544,331,111.285
E,1,1167529,vowelstep3.wav,None,1000,11,1279543,343,113.285
E,1,1167529,vowelstep7.wav,None,1000,11,1281543,343,115.285
E,1,1167529,sinestep3.wav,None,1000,11,1283543,341,117.285
E,1,1167529,vowelstep7.wav,None,1000,11,1285544,353,119.285
E,1,1167529,silence.wav,None,1000,11,1287544,332,121.285
E,1,1167529,silence.wav,None,1000,11,1289544,328,123.285
E,1,1167529,sinestep7.wav,None,1000,11,1291544,332,125.285
E,1,1167529,sinestep7_catch.wav,1,277,11,1293544,339,127.285
E,1,1167529,sinestep7.wav,None,1000,11,1295544,1030,129.285
E,1,1167529,silence.wav,None,1000,11,1297544,343,131.285
E,1,1167529,sinestep7_catch.wav,1,417,11,1299544,343,133.285
E,1,1167529,sinestep7.wav,None,1000,11,1301544,911,135.285
E,1,1167529,sinestep5_catch.wav,1,430,11,1303544,329,137.285
E,1,1167529,sinestep1.wav,None,1000,11,1305544,902,139.285
E,1,1167529,sinestep1.wav,None,1000,11,1307544,325,141.285
E,1,1167529,sinestep1.wav,None,1000,11,1309544,339,143.285
E,1,1167529,sinestep3.wav,None,1000,11,1311544,338,145.285
E,1,1167529,vowelstep5.wav,None,1000,11,1313544,340,147.285
E,1,1167529,silence.wav,None,1000,11,1315544,326,149.285
E,1,1167529,sinestep3_catch.wav,1,429,11,1317544,327,151.285
E,1,1167529,silence.wav,None,1000,11,1319544,898,153.285
E,1,1167529,sinestep7.wav,None,1000,11,1321545,330,155.285
E,1,1167529,sinestep5.wav,None,1000,11,1323545,340,157.285
E,1,1167529,silence.wav,None,1000,11,1325545,339,159.285
E,1,1167529,vowelstep5.wav,None,1000,11,1327544,341,161.285
E,1,1167529,vowelstep1.wav,None,1000,11,1329544,320,163.285
E,1,1167529,vowelstep3.wav,None,1000,11,1331544,330,165.285
E,1,1167529,sinestep5.wav,None,1000,11,1333544,329,167.285
E,1,1167529,sinestep7.wav,None,1000,11,1335544,328,169.285
E,1,1167529,vowelstep1.wav,None,1000,11,1337545,337,171.285
E,1,1167529,vowelstep7.wav,None,1000,11,1339545,337,173.285
E,1,1167529,sinestep3.wav,None,1000,11,1341545,339,175.285
E,1,1167529,silence.wav,None,1000,11,1343545,350,177.285
E,1,1167529,sinestep1_catch.wav,1,98,11,1345545,328,179.285
E,1,1167529,sinestep7.wav,None,1000,11,1347545,1225,181.285
E,1,1167529,vowelstep1.wav,None,1000,11,1349545,328,183.285
E,1,1167529,sinestep5.wav,None,1000,11,1351544,338,185.285
E,1,1167529,sinestep5.wav,None,1000,11,1353544,339,187.285
E,1,1167529,vowelstep1.wav,None,1000,11,1355545,339,189.285
E,1,1167529,sinestep7.wav,None,1000,11,1357545,318,191.285
E,1,1167529,sinestep3.wav,None,1000,11,1359545,328,193.285
E,1,1167529,sinestep7.wav,None,1000,11,1361545,327,195.285
E,1,1167529,silence.wav,None,1000,11,1363545,329,197.285
E,1,1167529,vowelstep1.wav,None,1000,11,1365545,329,199.285
E,1,1167529,sinestep1.wav,None,1000,11,1367545,339,201.285
E,1,1167529,vowelstep1.wav,None,1000,11,1369545,339,203.285
E,1,1167529,vowelstep1.wav,None,1000,11,1371545,351,205.285
E,1,1167529,vowelstep1_catch.wav,1,312,11,1373546,332,207.285
E,1,1167529,vowelstep1.wav,None,1000,11,1375545,1018,209.285
E,1,1167529,vowelstep1.wav,None,1000,11,1377545,328,211.285
E,1,1167529,silence.wav,None,1000,11,1379545,339,213.285
E,1,1167529,sinestep7.wav,None,1000,11,1381545,339,215.285
E,1,1167529,vowelstep7.wav,None,1000,11,1383545,338,217.285
E,1,1167529,vowelstep3_catch.wav,None,1000,11,1385545,347,219.285
E,1,1167529,vowelstep5.wav,None,1000,11,1387545,329,221.285
E,1,1167529,sinestep3.wav,None,1000,11,1389546,328,223.285
E,1,1167529,silence.wav,None,1000,11,1391546,324,225.285
E,1,1167529,sinestep1.wav,None,1000,11,1393546,328,227.285
E,1,1167529,sinestep5.wav,None,1000,11,1395546,337,229.285
E,1,1167529,sinestep5.wav,None,1000,11,1397546,336,231.285
E,1,1167529,sinestep3.wav,None,1000,11,1399545,349,233.285
E,1,1167529,sinestep5.wav,None,1000,11,1401545,318,235.285
E,1,1167529,vowelstep3.wav,None,1000,11,1403545,328,237.285
E,1,1167529,sinestep7.wav,None,1000,11,1405545,329,239.285
E,1,1167529,sinestep7.wav,None,1000,11,1407546,327,241.285
E,1,1167529,silence.wav,None,1000,11,1409546,337,243.285
E,1,1167529,sinestep3.wav,None,1000,11,1411546,336,245.285
E,1,1167529,sinestep3.wav,None,1000,11,1413546,337,247.285
E,1,1167529,vowelstep3.wav,None,1000,11,1415546,325,249.285
E,1,1167529,silence.wav,None,1000,11,1417546,326,251.285
E,1,1167529,sinestep7.wav,None,1000,11,1419546,325,253.285
E,1,1167529,silence.wav,None,1000,11,1421546,325,255.285
E,1,1167529,vowelstep7.wav,None,1000,11,1423545,335,257.285
E,1,1167529,vowelstep3.wav,None,1000,11,1425546,334,259.285
E,1,1167529,silence.wav,None,1000,11,1427546,339,261.285
E,1,1167529,vowelstep3.wav,None,1000,11,1429546,313,263.285
E,1,1167529,vowelstep1.wav,None,1000,11,1431546,324,265.285
E,1,1167529,vowelstep5.wav,None,1000,11,1433546,325,267.285
E,1,1167529,silence.wav,None,1000,11,1435546,322,269.285
E,1,1167529,vowelstep3.wav,None,1000,11,1437546,327,271.285
E,1,1167529,sinestep1.wav,None,1000,11,1439546,333,273.285
E,1,1167529,vowelstep5_catch.wav,1,299,11,1441546,334,275.285
E,1,1167529,sinestep7.wav,None,1000,11,1443547,1040,277.285
E,1,1167529,sinestep7.wav,None,1000,11,1445547,323,279.285
E,1,1167529,vowelstep7.wav,None,1000,11,1447546,323,281.285
E,1,1167529,silence.wav,None,1000,11,1449546,322,283.285
E,1,1167529,sinestep5.wav,None,1000,11,1451546,331,285.285
E,1,1167529,silence.wav,None,1000,11,1453546,331,287.285
E,1,1167529,silence.wav,None,1000,11,1455546,342,289.285
E,1,1167529,vowelstep5.wav,None,1000,11,1457546,336,291.285
E,1,1167529,vowelstep5.wav,None,1000,11,1459547,322,293.285
E,1,1167529,silence.wav,None,1000,11,1461547,320,295.285
E,1,1167529,vowelstep5.wav,None,1000,11,1463547,320,297.285
E,1,1167529,vowelstep7_catch.wav,None,1000,11,1465547,331,299.285
E,1,1167529,vowelstep7_catch.wav,1,767,11,1467547,328,301.285
E,1,1167529,vowelstep5.wav,None,1000,11,1469547,549,303.285
E,1,1167529,sinestep1.wav,None,1000,11,1471546,339,305.285
E,1,1167529,vowelstep3.wav,None,1000,11,1473546,319,307.285
E,1,1167529,vowelstep5_catch.wav,1,78,11,1475546,321,309.285
E,1,1167529,vowelstep7.wav,None,1000,11,1477547,1241,311.285
E,1,1167529,vowelstep5.wav,None,1000,11,1479547,329,313.285
E,1,1167529,vowelstep7.wav,None,1000,11,1481547,330,315.285
E,1,1167529,vowelstep1.wav,None,1000,11,1483547,331,317.285
E,1,1167529,vowelstep3_catch.wav,1,104,11,1485547,340,319.285
I,2,1544104,vowelstep7.wav,None,1000,11,1544114,0,1.285
I,2,1544104,sinestep1_catch.wav,1,166,11,1546114,331,3.285
I,2,1544104,sinestep3.wav,None,1000,11,1548115,1166,5.285
I,2,1544104,silence.wav,None,1000,11,1550115,335,7.285
I,2,1544104,vowelstep7.wav,None,1000,11,1552115,340,9.285
I,2,1544104,sinestep3_catch.wav,1,105,11,1554115,343,11.285
I,2,1544104,vowelstep3.wav,None,1000,11,1556115,1227,13.285
I,2,1544104,vowelstep3.wav,None,1000,11,1558115,334,15.285
I,2,1544104,silence.wav,None,1000,11,1560114,334,17.285
I,2,1544104,vowelstep1.wav,None,1000,11,1562114,334,19.285
I,2,1544104,vowelstep5.wav,None,1000,11,1564114,344,21.285
I,2,1544104,vowelstep7.wav,None,1000,11,1566115,342,23.285
I,2,1544104,sinestep1.wav,None,1000,11,1568115,351,25.285
I,2,1544104,vowelstep1.wav,None,1000,11,1570115,323,27.285
I,2,1544104,sinestep5_catch.wav,1,171,11,1572115,334,29.285
I,2,1544104,sinestep5.wav,None,1000,11,1574115,1161,31.285
I,2,1544104,vowelstep1.wav,None,1000,11,1576115,332,33.285
I,2,1544104,sinestep7.wav,None,1000,11,1578115,341,35.285
I,2,1544104,vowelstep3.wav,None,1000,11,1580115,342,37.285
I,2,1544104,vowelstep1.wav,None,1000,11,1582116,340,39.285
I,2,1544104,vowelstep1.wav,None,1000,11,1584116,348,41.285
I,2,1544104,sinestep3.wav,None,1000,11,1586115,332,43.285
I,2,1544104,sinestep5.wav,None,1000,11,1588115,331,45.285
I,2,1544104,sinestep5.wav,None,1000,11,1590115,331,47.285
I,2,1544104,vowelstep3.wav,None,1000,11,1592115,341,49.285
I,2,1544104,silence.wav,None,1000,11,1594115,341,51.285
I,2,1544104,sinestep7_catch.wav,1,211,11,1596115,339,53.285
I,2,1544104,silence.wav,None,1000,11,1598115,1135,55.285
I,2,1544104,sinestep1.wav,None,1000,11,1600116,331,57.285
I,2,1544104,vowelstep1.wav,None,1000,11,1602116,324,59.285
I,2,1544104,sinestep1.wav,None,1000,11,1604116,326,61.285
I,2,1544104,sinestep1.wav,None,1000,11,1606116,342,63.285
I,2,1544104,vowelstep7.wav,None,1000,11,1608116,339,65.285
I,2,1544104,sinestep5.wav,None,1000,11,1610115,340,67.285
I,2,1544104,sinestep5_catch.wav,1,182,11,1612115,322,69.285
I,2,1544104,vowelstep7.wav,None,1000,11,1614115,1138,71.285
I,2,1544104,vowelstep5.wav,None,1000,11,1616115,331,73.285
I,2,1544104,sinestep3.wav,None,1000,11,1618116,333,75.285
I,2,1544104,vowelstep1.wav,None,1000,11,1620116,341,77.285
I,2,1544104,sinestep3.wav,None,1000,11,1622116,340,79.285
I,2,1544104,sinestep5.wav,None,1000,11,1624116,340,81.285
I,2,1544104,sinestep5.wav,None,1000,11,1626116,339,83.285
I,2,1544104,vowelstep5.wav,None,1000,11,1628116,326,85.285
I,2,1544104,vowelstep7.wav,None,1000,11,1630116,330,87.285
I,2,1544104,sinestep3.wav,None,1000,11,1632116,328,89.285
I,2,1544104,vowelstep3.wav,None,1000,11,1634115,322,91.285
I,2,1544104,sinestep3.wav,None,1000,11,1636116,339,93.285
I,2,1544104,vowelstep5.wav,None,1000,11,1638116,336,95.285
I,2,1544104,sinestep7.wav,None,1000,11,1640116,344,97.285
I,2,1544104,sinestep3_catch.wav,None,1000,11,1642116,315,99.285
I,2,1544104,sinestep1_catch.wav,1,153,11,1644116,329,101.285
I,2,1544104,vowelstep3.wav,None,1000,11,1646116,1175,103.285
I,2,1544104,vowelstep3.wav,None,1000,11,1648116,336,105.285
I,2,1544104,vowelstep5.wav,None,1000,11,1650116,340,107.285
I,2,1544104,sinestep5.wav,None,1000,11,1652117,336,109.285
I,2,1544104,vowelstep5.wav,None,1000,11,1654117,346,111.285
I,2,1544104,vowelstep5.wav,None,1000,11,1656117,328,113.285
I,2,1544104,vowelstep1.wav,None,1000,11,1658116,326,115.285
I,2,1544104,vowelstep1_catch.wav,1,149,11,1660116,326,117.285
I,2,1544104,sinestep7.wav,None,1000,11,1662116,1175,119.285
I,2,1544104,vowelstep3.wav,None,1000,11,1664116,337,121.285
I,2,1544104,sinestep7.wav,None,1000,11,1666116,338,123.285
I,2,1544104,sinestep7.wav,None,1000,11,1668116,348,125.285
I,2,1544104,vowelstep7.wav,None,1000,11,1670117,348,127.285
I,2,1544104,vowelstep3.wav,None,1000,11,1672117,327,129.285
I,2,1544104,sinestep5.wav,None,1000,11,1674117,327,131.285
I,2,1544104,sinestep5.wav,None,1000,11,1676117,327,133.285
I,2,1544104,vowelstep3.wav,None,1000,11,1678117,334,135.285
I,2,1544104,sinestep5.wav,None,1000,11,1680117,338,137.285
I,2,1544104,sinestep1.wav,None,1000,11,1682116,344,139.285
I,2,1544104,vowelstep7.wav,None,1000,11,1684116,346,141.285
I,2,1544104,silence.wav,None,1000,11,1686116,348,143.285
I,2,1544104,vowelstep7.wav,None,1000,11,1688117,348,145.285
I,2,1544104,silence.wav,None,1000,11,1690117,327,147.285
I,2,1544104,sinestep1.wav,None,1000,11,1692117,337,149.285
I,2,1544104,vowelstep1.wav,None,1000,11,1694117,337,151.285
I,2,1544104,vowelstep3.wav,None,1000,11,1696117,330,153.285
I,2,1544104,silence.wav,None,1000,11,1698117,346,155.285
I,2,1544104,silence.wav,None,1000,11,1700117,346,157.285
I,2,1544104,vowelstep1.wav,None,1000,11,1702117,346,159.285
I,2,1544104,sinestep1.wav,None,1000,11,1704117,326,161.285
I,2,1544104,vowelstep3_catch.wav,1,271,11,1706117,326,163.285
I,2,1544104,sinestep1.wav,None,1000,11,1708117,1063,165.285
I,2,1544104,vowelstep5.wav,None,1000,11,1710117,335,167.285
I,2,1544104,vowelstep5_catch.wav,None,1000,11,1712117,345,169.285
I,2,1544104,sinestep1.wav,None,1000,11,1714117,346,171.285
I,2,1544104,silence.wav,None,1000,11,1716117,342,173.285
I,2,1544104,vowelstep5.wav,None,1000,11,1718117,345,175.285
I,2,1544104,sinestep3.wav,None,1000,11,1720117,332,177.285
I,2,1544104,sinestep3.wav,None,1000,11,1722118,334,179.285
I,2,1544104,silence.wav,None,1000,11,1724118,328,181.285
I,2,1544104,silence.wav,None,1000,11,1726118,333,183.285
I,2,1544104,vowelstep3.wav,None,1000,11,1728118,340,185.285
I,2,1544104,vowelstep7.wav,None,1000,11,1730117,341,187.285
I,2,1544104,vowelstep7.wav,None,1000,11,1732117,353,189.285
I,2,1544104,silence.wav,None,1000,11,1734117,334,191.285
I,2,1544104,sinestep3.wav,None,1000,11,1736117,330,193.285
I,2,1544104,sinestep3.wav,None,1000,11,1738117,334,195.285
I,2,1544104,vowelstep5.wav,None,1000,11,1740118,344,197.285
I,2,1544104,vowelstep1.wav,None,1000,11,1742118,343,199.285
I,2,1544104,vowelstep1.wav,None,1000,11,1744118,337,201.285
I,2,1544104,sinestep5.wav,None,1000,11,1746118,352,203.285
I,2,1544104,silence.wav,None,1000,11,1748118,333,205.285
I,2,1544104,sinestep5.wav,None,1000,11,1750118,332,207.285
I,2,1544104,sinestep7.wav,None,1000,11,1752118,333,209.285
I,2,1544104,sinestep1.wav,None,1000,11,1754117,338,211.285
I,2,1544104,sinestep5.wav,None,1000,11,1756117,340,213.285
I,2,1544104,vowelstep5.wav,None,1000,11,1758118,344,215.285
I,2,1544104,sinestep7.wav,None,1000,11,1760118,337,217.285
I,2,1544104,sinestep5.wav,None,1000,11,1762118,323,219.285
I,2,1544104,sinestep3.wav,None,1000,11,1764118,331,221.285
I,2,1544104,silence.wav,None,1000,11,1766118,332,223.285
I,2,1544104,vowelstep7_catch.wav,1,244,11,1768118,332,225.285
I,2,1544104,sinestep7.wav,None,1000,11,1770118,1095,227.285
I,2,1544104,sinestep7.wav,None,1000,11,1772118,342,229.285
I,2,1544104,sinestep3.wav,None,1000,11,1774118,351,231.285
I,2,1544104,vowelstep3.wav,None,1000,11,1776119,320,233.285
I,2,1544104,silence.wav,None,1000,11,1778118,331,235.285
I,2,1544104,sinestep3.wav,None,1000,11,1780118,330,237.285
I,2,1544104,sinestep5.wav,None,1000,11,1782118,332,239.285
I,2,1544104,silence.wav,None,1000,11,1784118,340,241.285
I,2,1544104,vowelstep3.wav,None,1000,11,1786118,340,243.285
I,2,1544104,sinestep1.wav,None,1000,11,1788118,332,245.285
I,2,1544104,sinestep1.wav,None,1000,11,1790118,351,247.285
I,2,1544104,sinestep7.wav,None,1000,11,1792119,326,249.285
I,2,1544104,vowelstep7.wav,None,1000,11,1794119,325,251.285
I,2,1544104,vowelstep5.wav,None,1000,11,1796119,336,253.285
I,2,1544104,silence.wav,None,1000,11,1798119,335,255.285
I,2,1544104,sinestep3.wav,None,1000,11,1800119,334,257.285
I,2,1544104,vowelstep1.wav,None,1000,11,1802119,347,259.285
I,2,1544104,vowelstep1.wav,None,1000,11,1804118,320,261.285
I,2,1544104,silence.wav,None,1000,11,1806118,326,263.285
I,2,1544104,vowelstep3.wav,None,1000,11,1808118,329,265.285
I,2,1544104,silence.wav,None,1000,11,1810119,336,267.285
I,2,1544104,silence.wav,None,1000,11,1812119,338,269.285
I,2,1544104,sinestep7.wav,None,1000,11,1814119,337,271.285
I,2,1544104,sinestep7.wav,None,1000,11,1816119,337,273.285
I,2,1544104,vowelstep5.wav,None,1000,11,1818119,319,275.285
I,2,1544104,silence.wav,None,1000,11,1820119,322,277.285
I,2,1544104,silence.wav,None,1000,11,1822119,323,279.285
I,2,1544104,sinestep1.wav,None,1000,11,1824119,329,281.285
I,2,1544104,silence.wav,None,1000,11,1826119,340,283.285
I,2,1544104,vowelstep7.wav,None,1000,11,1828119,333,285.285
I,2,1544104,vowelstep5_catch.wav,1,220,11,1830119,338,287.285
I,2,1544104,sinestep7.wav,None,1000,11,1832119,1128,289.285
I,2,1544104,sinestep1.wav,None,1000,11,1834119,326,291.285
I,2,1544104,vowelstep3_catch.wav,1,595,11,1836119,325,293.285
I,2,1544104,sinestep1.wav,None,1000,11,1838119,728,295.285
I,2,1544104,vowelstep7.wav,None,1000,11,1840119,338,297.285
I,2,1544104,sinestep3.wav,None,1000,11,1842119,336,299.285
I,2,1544104,vowelstep5.wav,None,1000,11,1844120,338,301.285
I,2,1544104,vowelstep1_catch.wav,None,1000,11,1846120,316,303.285
I,2,1544104,vowelstep7.wav,None,1000,11,1848120,325,305.285
I,2,1544104,vowelstep5.wav,None,1000,11,1850120,326,307.285
I,2,1544104,sinestep1_catch.wav,1,81,11,1852119,327,309.285
I,2,1544104,silence.wav,None,1000,11,1854119,1250,311.285
I,2,1544104,sinestep7.wav,None,1000,11,1856119,334,313.285
I,2,1544104,silence.wav,None,1000,11,1858119,334,315.285
I,2,1544104,vowelstep1.wav,None,1000,11,1860119,345,317.285
I,2,1544104,sinestep7.wav,None,1000,11,1862120,325,319.285
F,3,1924265,sinestep1.wav,None,1000,11,1924270,0,1.285
F,3,1924265,vowelstep5.wav,None,1000,11,1926270,354,3.285
F,3,1924265,vowelstep3.wav,None,1000,11,1928270,353,5.285
F,3,1924265,sinestep5.wav,None,1000,11,1930270,331,7.285
F,3,1924265,vowelstep7.wav,None,1000,11,1932271,334,9.285
F,3,1924265,silence.wav,None,1000,11,1934271,342,11.285
F,3,1924265,vowelstep5.wav,None,1000,11,1936271,155,13.285
F,3,1924265,sinestep3.wav,None,1000,11,1938271,342,15.285
F,3,1924265,sinestep3.wav,None,1000,11,1940271,351,17.285
F,3,1924265,silence.wav,None,1000,11,1942271,352,19.285
F,3,1924265,vowelstep7.wav,None,1000,11,1944271,351,21.285
F,3,1924265,vowelstep7.wav,None,1000,11,1946271,331,23.285
F,3,1924265,vowelstep1_catch.wav,1,324,11,1948270,338,25.285
F,3,1924265,vowelstep3_catch.wav,1,322,11,1950271,1018,27.285
F,3,1924265,vowelstep1.wav,None,1000,11,1952271,1014,29.285
F,3,1924265,sinestep5.wav,None,1000,11,1954271,352,31.285
F,3,1924265,sinestep5.wav,None,1000,11,1956271,346,33.285
F,3,1924265,vowelstep7.wav,None,1000,11,1958271,351,35.285
F,3,1924265,sinestep3.wav,None,1000,11,1960271,327,37.285
F,3,1924265,sinestep7.wav,None,1000,11,1962271,341,39.285
F,3,1924265,vowelstep5_catch.wav,1,169,11,1964271,341,41.285
F,3,1924265,sinestep1.wav,None,1000,11,1966271,1166,43.285
F,3,1924265,vowelstep7_catch.wav,1,166,11,1968272,349,45.285
F,3,1924265,vowelstep3.wav,None,1000,11,1970272,1182,47.285
F,3,1924265,sinestep1.wav,None,1000,11,1972271,348,49.285
F,3,1924265,sinestep7.wav,None,1000,11,1974271,360,51.285
F,3,1924265,silence.wav,None,1000,11,1976271,340,53.285
F,3,1924265,sinestep7.wav,None,1000,11,1978271,332,55.285
F,3,1924265,vowelstep1.wav,None,1000,11,1980271,339,57.285
F,3,1924265,vowelstep3.wav,None,1000,11,1982271,349,59.285
F,3,1924265,vowelstep7_catch.wav,1,117,11,1984272,350,61.285
F,3,1924265,sinestep5.wav,None,1000,11,1986272,1230,63.285
F,3,1924265,sinestep3.wav,None,1000,11,1988272,359,65.285
F,3,1924265,vowelstep3.wav,None,1000,11,1990272,339,67.285
F,3,1924265,silence.wav,None,1000,11,1992272,334,69.285
F,3,1924265,vowelstep1.wav,None,1000,11,1994272,335,71.285
F,3,1924265,vowelstep1.wav,None,1000,11,1996271,346,73.285
F,3,1924265,vowelstep5_catch.wav,1,362,11,1998271,346,75.285
F,3,1924265,silence.wav,None,1000,11,2000271,985,77.285
F,3,1924265,vowelstep3.wav,None,1000,11,2002272,360,79.285
F,3,1924265,vowelstep5.wav,None,1000,11,2004272,339,81.285
F,3,1924265,vowelstep3_catch.wav,1,99,11,2006272,334,83.285
F,3,1924265,vowelstep3.wav,None,1000,11,2008272,1239,85.285
F,3,1924265,sinestep7.wav,None,1000,11,2010272,348,87.285
F,3,1924265,vowelstep1.wav,None,1000,11,2012272,344,89.285
F,3,1924265,sinestep1.wav,None,1000,11,2014272,346,91.285
F,3,1924265,vowelstep1_catch.wav,1,243,11,2016272,356,93.285
F,3,1924265,vowelstep5.wav,None,1000,11,2018272,1094,95.285
F,3,1924265,sinestep7.wav,None,1000,11,2020272,338,97.285
F,3,1924265,vowelstep7.wav,None,1000,11,2022272,336,99.285
F,3,1924265,vowelstep3.wav,None,1000,11,2024272,337,101.285
F,3,1924265,sinestep3.wav,None,1000,11,2026272,347,103.285
F,3,1924265,silence.wav,None,1000,11,2028272,342,105.285
F,3,1924265,sinestep1.wav,None,1000,11,2030272,349,107.285
F,3,1924265,sinestep1.wav,None,1000,11,2032272,323,109.285
F,3,1924265,silence.wav,None,1000,11,2034272,333,111.285
F,3,1924265,sinestep7.wav,None,1000,11,2036272,338,113.285
F,3,1924265,vowelstep3.wav,None,1000,11,2038273,335,115.285
F,3,1924265,sinestep3.wav,None,1000,11,2040273,347,117.285
F,3,1924265,vowelstep3.wav,None,1000,11,2042273,346,119.285
F,3,1924265,vowelstep7.wav,None,1000,11,2044273,342,121.285
F,3,1924265,vowelstep7.wav,None,1000,11,2046272,336,123.285
F,3,1924265,vowelstep5.wav,None,1000,11,2048272,335,125.285
F,3,1924265,sinestep1.wav,None,1000,11,2050272,336,127.285
F,3,1924265,silence.wav,None,1000,11,2052272,336,129.285
F,3,1924265,sinestep1.wav,None,1000,11,2054273,343,131.285
F,3,1924265,sinestep3.wav,None,1000,11,2056273,341,133.285
F,3,1924265,sinestep1_catch.wav,None,1000,11,2058273,355,135.285
F,3,1924265,sinestep3.wav,None,1000,11,2060273,320,137.285
F,3,1924265,sinestep3.wav,None,1000,11,2062273,336,139.285
F,3,1924265,silence.wav,None,1000,11,2064273,333,141.285
F,3,1924265,silence.wav,None,1000,11,2066273,335,143.285
F,3,1924265,sinestep7.wav,None,1000,11,2068272,346,145.285
F,3,1924265,sinestep5.wav,None,1000,11,2070272,341,147.285
F,3,1924265,vowelstep1.wav,None,1000,11,2072273,338,149.285
F,3,1924265,sinestep7.wav,None,1000,11,2074273,349,151.285
F,3,1924265,silence.wav,None,1000,11,2076273,326,153.285
F,3,1924265,sinestep3_catch.wav,1,706,11,2078273,333,155.285
F,3,1924265,vowelstep5.wav,None,1000,11,2080273,626,157.285
F,3,1924265,sinestep3.wav,None,1000,11,2082273,343,159.285
F,3,1924265,vowelstep5.wav,None,1000,11,2084273,343,161.285
F,3,1924265,sinestep3.wav,None,1000,11,2086273,339,163.285
F,3,1924265,vowelstep3.wav,None,1000,11,2088273,350,165.285
F,3,1924265,vowelstep1.wav,None,1000,11,2090274,331,167.285
F,3,1924265,sinestep5.wav,None,1000,11,2092274,330,169.285
F,3,1924265,vowelstep5.wav,None,1000,11,2094273,331,171.285
F,3,1924265,vowelstep1.wav,None,1000,11,2096273,336,173.285
F,3,1924265,vowelstep1.wav,None,1000,11,2098273,342,175.285
F,3,1924265,sinestep7.wav,None,1000,11,2100273,342,177.285
F,3,1924265,vowelstep1.wav,None,1000,11,2102273,348,179.285
F,3,1924265,sinestep5.wav,None,1000,11,2104273,320,181.285
F,3,1924265,vowelstep7.wav,None,1000,11,2106273,329,183.285
F,3,1924265,sinestep1.wav,None,1000,11,2108274,332,185.285
F,3,1924265,vowelstep7.wav,None,1000,11,2110274,341,187.285
F,3,1924265,sinestep5.wav,None,1000,11,2112274,342,189.285
F,3,1924265,vowelstep5.wav,None,1000,11,2114274,342,191.285
F,3,1924265,silence.wav,None,1000,11,2116274,352,193.285
F,3,1924265,sinestep7.wav,None,1000,11,2118273,332,195.285
F,3,1924265,vowelstep5.wav,None,1000,11,2120273,327,197.285
F,3,1924265,vowelstep7.wav,None,1000,11,2122273,329,199.285
F,3,1924265,silence.wav,None,1000,11,2124274,340,201.285
F,3,1924265,vowelstep1.wav,None,1000,11,2126274,339,203.285
F,3,1924265,vowelstep7.wav,None,1000,11,2128274,340,205.285
F,3,1924265,vowelstep7.wav,None,1000,11,2130274,320,207.285
F,3,1924265,vowelstep3.wav,None,1000,11,2132274,322,209.285
F,3,1924265,vowelstep3.wav,None,1000,11,2134274,329,211.285
F,3,1924265,silence.wav,None,1000,11,2136274,327,213.285
F,3,1924265,sinestep7.wav,None,1000,11,2138274,335,215.285
F,3,1924265,sinestep1.wav,None,1000,11,2140274,341,217.285
F,3,1924265,silence.wav,None,1000,11,2142274,342,219.285
F,3,1924265,vowelstep1.wav,None,1000,11,2144274,339,221.285
F,3,1924265,sinestep5_catch.wav,None,1000,11,2146274,331,223.285
F,3,1924265,sinestep1.wav,None,1000,11,2148274,330,225.285
F,3,1924265,silence.wav,None,1000,11,2150274,329,227.285
F,3,1924265,sinestep7.wav,None,1000,11,2152274,340,229.285
F,3,1924265,sinestep7.wav,None,1000,11,2154274,331,231.285
F,3,1924265,silence.wav,None,1000,11,2156274,340,233.285
F,3,1924265,vowelstep5.wav,None,1000,11,2158274,344,235.285
F,3,1924265,sinestep7.wav,None,1000,11,2160275,329,237.285
F,3,1924265,sinestep5.wav,None,1000,11,2162275,329,239.285
F,3,1924265,sinestep5.wav,None,1000,11,2164275,325,241.285
F,3,1924265,silence.wav,None,1000,11,2166274,328,243.285
F,3,1924265,vowelstep3.wav,None,1000,11,2168274,335,245.285
F,3,1924265,vowelstep3.wav,None,1000,11,2170274,334,247.285
F,3,1924265,silence.wav,None,1000,11,2172274,338,249.285
F,3,1924265,sinestep1.wav,None,1000,11,2174274,347,251.285
F,3,1924265,sinestep1.wav,None,1000,11,2176275,326,253.285
F,3,1924265,vowelstep5.wav,None,1000,11,2178275,329,255.285
F,3,1924265,silence.wav,None,1000,11,2180275,327,257.285
F,3,1924265,sinestep5.wav,None,1000,11,2182275,338,259.285
F,3,1924265,sinestep5.wav,None,1000,11,2184275,338,261.285
F,3,1924265,sinestep5.wav,None,1000,11,2186275,332,263.285
F,3,1924265,sinestep7.wav,None,1000,11,2188275,328,265.285
F,3,1924265,sinestep7_catch.wav,None,1000,11,2190274,325,267.285
F,3,1924265,sinestep7_catch.wav,1,224,11,2192274,347,269.285
F,3,1924265,sinestep1.wav,None,1000,11,2194275,1103,271.285
F,3,1924265,vowelstep7.wav,None,1000,11,2196275,336,273.285
F,3,1924265,sinestep3.wav,None,1000,11,2198275,336,275.285
F,3,1924265,sinestep3.wav,None,1000,11,2200275,332,277.285
F,3,1924265,silence.wav,None,1000,11,2202275,346,279.285
F,3,1924265,sinestep5_catch.wav,1,126,11,2204275,342,281.285
F,3,1924265,sinestep5.wav,None,1000,11,2206275,1221,283.285
F,3,1924265,silence.wav,None,1000,11,2208275,336,285.285
F,3,1924265,vowelstep5.wav,None,1000,11,2210275,337,287.285
F,3,1924265,silence.wav,None,1000,11,2212276,337,289.285
F,3,1924265,sinestep1.wav,None,1000,11,2214275,336,291.285
F,3,1924265,sinestep3.wav,None,1000,11,2216275,346,293.285
F,3,1924265,vowelstep3.wav,None,1000,11,2218275,341,295.285
F,3,1924265,silence.wav,None,1000,11,2220275,345,297.285
F,3,1924265,sinestep5.wav,None,1000,11,2222275,354,299.285
F,3,1924265,vowelstep5.wav,None,1000,11,2224275,332,301.285
F,3,1924265,vowelstep5.wav,None,1000,11,2226275,335,303.285
F,3,1924265,vowelstep1.wav,None,1000,11,2228275,335,305.285
F,3,1924265,sinestep3.wav,None,1000,11,2230276,345,307.285
F,3,1924265,silence.wav,None,1000,11,2232276,340,309.285
F,3,1924265,sinestep3_catch.wav,1,128,11,2234276,345,311.285
F,3,1924265,vowelstep1.wav,None,1000,11,2236276,1219,313.285
F,3,1924265,vowelstep7.wav,None,1000,11,2238275,335,315.285
F,3,1924265,vowelstep7.wav,None,1000,11,2240275,335,317.285
F,3,1924265,vowelstep1.wav,None,1000,11,2242275,329,319.285
G,4,2327093,vowelstep3.wav,None,1000,11,2327110,0,1.285
G,4,2327093,vowelstep3.wav,None,1000,11,2329110,323,3.285
G,4,2327093,vowelstep7.wav,None,1000,11,2331110,325,5.285
G,4,2327093,vowelstep3.wav,None,1000,11,2333110,320,7.285
G,4,2327093,sinestep5.wav,None,1000,11,2335111,337,9.285
G,4,2327093,sinestep1_catch.wav,1,179,11,2337111,334,11.285
G,4,2327093,silence.wav,None,1000,11,2339111,1166,13.285
G,4,2327093,silence.wav,None,1000,11,2341111,312,15.285
G,4,2327093,vowelstep7.wav,None,1000,11,2343110,323,17.285
G,4,2327093,vowelstep1.wav,None,1000,11,2345110,322,19.285
G,4,2327093,silence.wav,None,1000,11,2347110,319,21.285
G,4,2327093,sinestep1.wav,None,1000,11,2349110,334,23.285
G,4,2327093,vowelstep7.wav,None,1000,11,2351111,331,25.285
G,4,2327093,sinestep5.wav,None,1000,11,2353111,335,27.285
G,4,2327093,sinestep5.wav,None,1000,11,2355111,343,29.285
G,4,2327093,sinestep3.wav,None,1000,11,2357111,322,31.285
G,4,2327093,vowelstep3.wav,None,1000,11,2359111,321,33.285
G,4,2327093,silence.wav,None,1000,11,2361111,319,35.285
G,4,2327093,vowelstep1.wav,None,1000,11,2363111,331,37.285
G,4,2327093,sinestep7.wav,None,1000,11,2365111,331,39.285
G,4,2327093,vowelstep5.wav,None,1000,11,2367110,321,41.285
G,4,2327093,vowelstep3.wav,None,1000,11,2369111,342,43.285
G,4,2327093,sinestep1.wav,None,1000,11,2371111,322,45.285
G,4,2327093,sinestep7.wav,None,1000,11,2373111,322,47.285
G,4,2327093,sinestep1.wav,None,1000,11,2375111,321,49.285
G,4,2327093,sinestep5.wav,None,1000,11,2377111,141,51.285
G,4,2327093,vowelstep1.wav,None,1000,11,2379111,331,53.285
G,4,2327093,silence.wav,None,1000,11,2381111,331,55.285
G,4,2327093,sinestep5.wav,None,1000,11,2383111,314,57.285
G,4,2327093,vowelstep1.wav,None,1000,11,2385111,312,59.285
G,4,2327093,vowelstep3.wav,None,1000,11,2387112,323,61.285
G,4,2327093,sinestep3.wav,None,1000,11,2389112,322,63.285
G,4,2327093,sinestep1.wav,None,1000,11,2391111,333,65.285
G,4,2327093,vowelstep5.wav,None,1000,11,2393111,333,67.285
G,4,2327093,vowelstep3.wav,None,1000,11,2395111,331,69.285
G,4,2327093,vowelstep5.wav,None,1000,11,2397111,337,71.285
G,4,2327093,vowelstep7.wav,None,1000,11,2399111,322,73.285
G,4,2327093,vowelstep5.wav,None,1000,11,2401111,321,75.285
G,4,2327093,vowelstep5.wav,None,1000,11,2403111,318,77.285
G,4,2327093,sinestep3.wav,None,1000,11,2405112,331,79.285
G,4,2327093,sinestep3_catch.wav,1,137,11,2407112,330,81.285
G,4,2327093,sinestep5_catch.wav,1,124,11,2409112,1191,83.285
G,4,2327093,sinestep7.wav,None,1000,11,2411112,1213,85.285
G,4,2327093,sinestep7_catch.wav,1,55,11,2413112,323,87.285
G,4,2327093,sinestep7.wav,None,1000,11,2415112,1261,89.285
G,4,2327093,vowelstep1.wav,None,1000,11,2417111,322,91.285
G,4,2327093,vowelstep7.wav,None,1000,11,2419111,327,93.285
G,4,2327093,vowelstep3.wav,None,1000,11,2421112,324,95.285
G,4,2327093,sinestep3.wav,None,1000,11,2423112,328,97.285
G,4,2327093,sinestep1.wav,None,1000,11,2425112,330,99.285
G,4,2327093,sinestep1.wav,None,1000,11,2427112,316,101.285
G,4,2327093,sinestep5.wav,None,1000,11,2429112,320,103.285
G,4,2327093,vowelstep7.wav,None,1000,11,2431112,319,105.285
G,4,2327093,silence.wav,None,1000,11,2433112,331,107.285
G,4,2327093,sinestep3.wav,None,1000,11,2435112,327,109.285
G,4,2327093,vowelstep1.wav,None,1000,11,2437112,330,111.285
G,4,2327093,sinestep3.wav,None,1000,11,2439113,337,113.285
G,4,2327093,sinestep3.wav,None,1000,11,2441112,318,115.285
G,4,2327093,sinestep7.wav,None,1000,11,2443112,319,117.285
G,4,2327093,silence.wav,None,1000,11,2445112,312,119.285
G,4,2327093,vowelstep5.wav,None,1000,11,2447112,319,121.285
G,4,2327093,sinestep1_catch.wav,1,110,11,2449095,326,123.285
G,4,2327093,silence.wav,None,1000,11,2451112,1238,125.285
G,4,2327093,sinestep5.wav,None,1000,11,2453112,282,127.285
G,4,2327093,sinestep7.wav,None,1000,11,2455112,299,129.285
G,4,2327093,sinestep3.wav,None,1000,11,2457113,320,131.285
G,4,2327093,sinestep3.wav,None,1000,11,2459113,317,133.285
G,4,2327093,vowelstep5.wav,None,1000,11,2461113,316,135.285
G,4,2327093,sinestep3.wav,None,1000,11,2463113,325,137.285
G,4,2327093,sinestep3_catch.wav,1,373,11,2465096,325,139.285
G,4,2327093,vowelstep1.wav,None,1000,11,2467096,949,141.285
G,4,2327093,vowelstep1.wav,None,1000,11,2469112,335,143.285
G,4,2327093,sinestep5.wav,None,1000,11,2471112,317,145.285
G,4,2327093,silence.wav,None,1000,11,2473112,318,147.285
G,4,2327093,sinestep3.wav,None,1000,11,2475096,316,149.285
G,4,2327093,silence.wav,None,1000,11,2477113,347,151.285
G,4,2327093,vowelstep3.wav,None,1000,11,2479113,323,153.285
G,4,2327093,sinestep5.wav,None,1000,11,2481096,325,155.285
G,4,2327093,vowelstep7.wav,None,1000,11,2483096,339,157.285
G,4,2327093,silence.wav,None,1000,11,2485096,338,159.285
G,4,2327093,sinestep5_catch.wav,1,107,11,2487113,338,161.285
G,4,2327093,vowelstep5.wav,None,1000,11,2489112,1211,163.285
G,4,2327093,silence.wav,None,1000,11,2491097,322,165.285
G,4,2327093,vowelstep7.wav,None,1000,11,2493097,344,167.285
G,4,2327093,vowelstep1.wav,None,1000,11,2495113,354,169.285
G,4,2327093,vowelstep1.wav,None,1000,11,2497096,335,171.285
G,4,2327093,vowelstep1.wav,None,1000,11,2499096,334,173.285
G,4,2327093,sinestep5.wav,None,1000,11,2501096,335,175.285
G,4,2327093,vowelstep3.wav,None,1000,11,2503096,346,177.285
G,4,2327093,sinestep1.wav,None,1000,11,2505113,343,179.285
G,4,2327093,vowelstep1.wav,None,1000,11,2507113,320,181.285
G,4,2327093,sinestep1.wav,None,1000,11,2509097,326,183.285
G,4,2327093,sinestep7.wav,None,1000,11,2511097,334,185.285
G,4,2327093,sinestep7.wav,None,1000,11,2513097,335,187.285
G,4,2327093,sinestep3.wav,None,1000,11,2515097,331,189.285
G,4,2327093,sinestep5.wav,None,1000,11,2517097,331,191.285
G,4,2327093,silence.wav,None,1000,11,2519097,345,193.285
G,4,2327093,sinestep7_catch.wav,1,551,11,2521096,343,195.285
G,4,2327093,vowelstep7_catch.wav,1,257,11,2523096,794,197.285
G,4,2327093,sinestep7.wav,None,1000,11,2525113,1091,199.285
G,4,2327093,silence.wav,None,1000,11,2527097,334,201.285
G,4,2327093,sinestep7.wav,None,1000,11,2529097,332,203.285
G,4,2327093,sinestep3.wav,None,1000,11,2531097,329,205.285
G,4,2327093,vowelstep7.wav,None,1000,11,2533097,342,207.285
G,4,2327093,sinestep1.wav,None,1000,11,2535097,344,209.285
G,4,2327093,silence.wav,None,1000,11,2537097,351,211.285
G,4,2327093,silence.wav,None,1000,11,2539097,322,213.285
G,4,2327093,vowelstep7.wav,None,1000,11,2541097,333,215.285
G,4,2327093,vowelstep5.wav,None,1000,11,2543113,330,217.285
G,4,2327093,sinestep7.wav,None,1000,11,2545097,344,219.285
G,4,2327093,vowelstep5.wav,None,1000,11,2547097,340,221.285
G,4,2327093,vowelstep5_catch.wav,1,287,11,2549097,342,223.285
G,4,2327093,vowelstep7.wav,None,1000,11,2551097,1054,225.285
G,4,2327093,silence.wav,None,1000,11,2553097,334,227.285
G,4,2327093,silence.wav,None,1000,11,2555097,330,229.285
G,4,2327093,sinestep1.wav,None,1000,11,2557097,328,231.285
G,4,2327093,silence.wav,None,1000,11,2559097,315,233.285
G,4,2327093,vowelstep7.wav,None,1000,11,2561098,344,235.285
G,4,2327093,vowelstep5.wav,None,1000,11,2563098,339,237.285
G,4,2327093,vowelstep3.wav,None,1000,11,2565098,343,239.285
G,4,2327093,vowelstep3_catch.wav,1,322,11,2567098,333,241.285
G,4,2327093,sinestep1.wav,None,1000,11,2569097,1008,243.285
G,4,2327093,silence.wav,None,1000,11,2571097,348,245.285
G,4,2327093,sinestep7.wav,None,1000,11,2573097,339,247.285
G,4,2327093,sinestep1.wav,None,1000,11,2575097,342,249.285
G,4,2327093,sinestep3.wav,None,1000,11,2577097,341,251.285
G,4,2327093,vowelstep3.wav,None,1000,11,2579098,340,253.285
G,4,2327093,vowelstep1_catch.wav,None,1000,11,2581098,345,255.285
G,4,2327093,sinestep7.wav,None,1000,11,2583098,350,257.285
G,4,2327093,silence.wav,None,1000,11,2585098,361,259.285
G,4,2327093,sinestep5.wav,None,1000,11,2587098,327,261.285
G,4,2327093,sinestep5.wav,None,1000,11,2589098,341,263.285
G,4,2327093,vowelstep5.wav,None,1000,11,2591098,334,265.285
G,4,2327093,sinestep5.wav,None,1000,11,2593097,340,267.285
G,4,2327093,sinestep7.wav,None,1000,11,2595097,348,269.285
G,4,2327093,silence.wav,None,1000,11,2597098,348,271.285
G,4,2327093,vowelstep7_catch.wav,1,215,11,2599098,350,273.285
G,4,2327093,vowelstep5.wav,None,1000,11,2601098,1145,275.285
G,4,2327093,silence.wav,None,1000,11,2603098,340,277.285
G,4,2327093,sinestep3.wav,None,1000,11,2605098,339,279.285
G,4,2327093,vowelstep5.wav,None,1000,11,2607098,340,281.285
G,4,2327093,silence.wav,None,1000,11,2609098,350,283.285
G,4,2327093,vowelstep1.wav,None,1000,11,2611098,349,285.285
G,4,2327093,sinestep1.wav,None,1000,11,2613098,347,287.285
G,4,2327093,vowelstep3.wav,None,1000,11,2615099,358,289.285
G,4,2327093,vowelstep7.wav,None,1000,11,2617098,339,291.285
G,4,2327093,vowelstep7.wav,None,1000,11,2619098,335,293.285
G,4,2327093,sinestep1.wav,None,1000,11,2621098,337,295.285
G,4,2327093,vowelstep5.wav,None,1000,11,2623098,340,297.285
G,4,2327093,silence.wav,None,1000,11,2625098,348,299.285
G,4,2327093,sinestep1.wav,None,1000,11,2627098,349,301.285
G,4,2327093,vowelstep7.wav,None,1000,11,2629098,358,303.285
G,4,2327093,vowelstep5_catch.wav,1,177,11,2631099,327,305.285
G,4,2327093,vowelstep3.wav,None,1000,11,2633099,1159,307.285
G,4,2327093,vowelstep3_catch.wav,1,122,11,2635099,333,309.285
G,4,2327093,sinestep7.wav,None,1000,11,2637099,1220,311.285
G,4,2327093,sinestep5.wav,None,1000,11,2639099,348,313.285
G,4,2327093,vowelstep1.wav,None,1000,11,2641098,345,315.285
G,4,2327093,vowelstep3.wav,None,1000,11,2643098,358,317.285
G,4,2327093,vowelstep1.wav,None,1000,11,2645098,335,319.285
B,5,2705111,vowelstep5.wav,None,1000,11,2705117,0,1.285
B,5,2705111,silence.wav,None,1000,11,2707116,323,3.285
B,5,2705111,sinestep7.wav,None,1000,11,2709116,327,5.285
B,5,2705111,vowelstep1_catch.wav,1,52,11,2711116,342,7.285
B,5,2705111,vowelstep7.wav,None,1000,11,2713116,1287,9.285
B,5,2705111,vowelstep3.wav,None,1000,11,2715116,339,11.285
B,5,2705111,vowelstep7.wav,None,1000,11,2717116,322,13.285
B,5,2705111,vowelstep5.wav,None,1000,11,2719117,332,15.285
B,5,2705111,vowelstep7.wav,None,1000,11,2721117,330,17.285
B,5,2705111,vowelstep3.wav,None,1000,11,2723117,341,19.285
B,5,2705111,silence.wav,None,1000,11,2725117,336,21.285
B,5,2705111,silence.wav,None,1000,11,2727117,342,23.285
B,5,2705111,sinestep5.wav,None,1000,11,2729117,337,25.285
B,5,2705111,sinestep1.wav,None,1000,11,2731116,322,27.285
B,5,2705111,vowelstep7.wav,None,1000,11,2733116,331,29.285
B,5,2705111,sinestep5.wav,None,1000,11,2735116,351,31.285
B,5,2705111,vowelstep1.wav,None,1000,11,2737117,330,33.285
B,5,2705111,vowelstep7.wav,None,1000,11,2739117,339,35.285
B,5,2705111,vowelstep3.wav,None,1000,11,2741117,334,37.285
B,5,2705111,sinestep5.wav,None,1000,11,2743117,340,39.285
B,5,2705111,vowelstep1.wav,None,1000,11,2745117,344,41.285
B,5,2705111,sinestep3.wav,None,1000,11,2747117,349,43.285
B,5,2705111,vowelstep5.wav,None,1000,11,2749117,347,45.285
B,5,2705111,vowelstep7.wav,None,1000,11,2751117,358,47.285
B,5,2705111,vowelstep3.wav,None,1000,11,2753117,336,49.285
B,5,2705111,sinestep7.wav,None,1000,11,2755117,337,51.285
B,5,2705111,sinestep3.wav,None,1000,11,2757117,334,53.285
B,5,2705111,sinestep1.wav,None,1000,11,2759117,347,55.285
B,5,2705111,sinestep1.wav,None,1000,11,2761117,349,57.285
B,5,2705111,sinestep5.wav,None,1000,11,2763117,346,59.285
B,5,2705111,vowelstep5.wav,None,1000,11,2765117,343,61.285
B,5,2705111,vowelstep3_catch.wav,1,65,11,2767117,338,63.285
B,5,2705111,vowelstep7.wav,None,1000,11,2769117,1271,65.285
B,5,2705111,sinestep1.wav,None,1000,11,2771118,337,67.285
B,5,2705111,vowelstep5.wav,None,1000,11,2773118,333,69.285
B,5,2705111,vowelstep5_catch.wav,1,160,11,2775118,346,71.285
B,5,2705111,vowelstep7.wav,None,1000,11,2777118,1187,73.285
B,5,2705111,sinestep3.wav,None,1000,11,2779117,358,75.285
B,5,2705111,vowelstep7_catch.wav,1,181,11,2781117,326,77.285
B,5,2705111,sinestep5.wav,None,1000,11,2783117,1156,79.285
B,5,2705111,vowelstep5.wav,None,1000,11,2785117,336,81.285
B,5,2705111,silence.wav,None,1000,11,2787117,346,83.285
B,5,2705111,silence.wav,None,1000,11,2789118,346,85.285
B,5,2705111,vowelstep3.wav,None,1000,11,2791118,346,87.285
B,5,2705111,silence.wav,None,1000,11,2793118,346,89.285
B,5,2705111,sinestep1.wav,None,1000,11,2795118,335,91.285
B,5,2705111,sinestep1.wav,None,1000,11,2797118,336,93.285
B,5,2705111,sinestep5.wav,None,1000,11,2799118,336,95.285
B,5,2705111,vowelstep7.wav,None,1000,11,2801118,336,97.285
B,5,2705111,sinestep5.wav,None,1000,11,2803117,347,99.285
B,5,2705111,sinestep5.wav,None,1000,11,2805117,341,101.285
B,5,2705111,silence.wav,None,1000,11,2807118,344,103.285
B,5,2705111,vowelstep1.wav,None,1000,11,2809118,325,105.285
B,5,2705111,silence.wav,None,1000,11,2811118,335,107.285
B,5,2705111,sinestep1.wav,None,1000,11,2813118,334,109.285
B,5,2705111,vowelstep7.wav,None,1000,11,2815118,343,111.285
B,5,2705111,silence.wav,None,1000,11,2817118,343,113.285
B,5,2705111,sinestep1.wav,None,1000,11,2819118,345,115.285
B,5,2705111,vowelstep3.wav,None,1000,11,2821118,345,117.285
B,5,2705111,vowelstep5.wav,None,1000,11,2823118,325,119.285
B,5,2705111,silence.wav,None,1000,11,2825119,333,121.285
B,5,2705111,sinestep3.wav,None,1000,11,2827118,334,123.285
B,5,2705111,sinestep5.wav,None,1000,11,2829118,334,125.285
B,5,2705111,silence.wav,None,1000,11,2831118,338,127.285
B,5,2705111,vowelstep5.wav,None,1000,11,2833118,344,129.285
B,5,2705111,sinestep3.wav,None,1000,11,2835118,345,131.285
B,5,2705111,sinestep5.wav,None,1000,11,2837118,321,133.285
B,5,2705111,sinestep5.wav,None,1000,11,2839118,333,135.285
B,5,2705111,sinestep7.wav,None,1000,11,2841119,333,137.285
B,5,2705111,sinestep7.wav,None,1000,11,2843119,334,139.285
B,5,2705111,vowelstep5.wav,None,1000,11,2845119,332,141.285
B,5,2705111,sinestep1.wav,None,1000,11,2847119,340,143.285
B,5,2705111,vowelstep7.wav,None,1000,11,2849119,342,145.285
B,5,2705111,sinestep7.wav,None,1000,11,2851118,322,147.285
B,5,2705111,vowelstep5.wav,None,1000,11,2853118,332,149.285
B,5,2705111,vowelstep1.wav,None,1000,11,2855118,329,151.285
B,5,2705111,sinestep3.wav,None,1000,11,2857118,330,153.285
B,5,2705111,silence.wav,None,1000,11,2859119,336,155.285
B,5,2705111,silence.wav,None,1000,11,2861119,339,157.285
B,5,2705111,sinestep7_catch.wav,1,122,11,2863119,339,159.285
B,5,2705111,vowelstep5.wav,None,1000,11,2865119,1228,161.285
B,5,2705111,sinestep7.wav,None,1000,11,2867119,332,163.285
B,5,2705111,vowelstep5.wav,None,1000,11,2869119,328,165.285
B,5,2705111,vowelstep3.wav,None,1000,11,2871119,331,167.285
B,5,2705111,silence.wav,None,1000,11,2873119,326,169.285
B,5,2705111,sinestep3.wav,None,1000,11,2875118,343,171.285
B,5,2705111,sinestep7_catch.wav,1,65,11,2877119,340,173.285
B,5,2705111,sinestep3.wav,None,1000,11,2879119,1283,175.285
B,5,2705111,sinestep5_catch.wav,1,125,11,2881119,321,177.285
B,5,2705111,vowelstep5.wav,None,1000,11,2883119,1202,179.285
B,5,2705111,silence.wav,None,1000,11,2885119,330,181.285
B,5,2705111,sinestep7.wav,None,1000,11,2887119,337,183.285
B,5,2705111,silence.wav,None,1000,11,2889119,339,185.285
B,5,2705111,sinestep3.wav,None,1000,11,2891119,339,187.285
B,5,2705111,silence.wav,None,1000,11,2893120,351,189.285
B,5,2705111,vowelstep7.wav,None,1000,11,2895120,328,191.285
B,5,2705111,vowelstep3.wav,None,1000,11,2897120,330,193.285
B,5,2705111,vowelstep3.wav,None,1000,11,2899119,330,195.285
B,5,2705111,sinestep7.wav,None,1000,11,2901119,326,197.285
B,5,2705111,sinestep7.wav,None,1000,11,2903119,341,199.285
B,5,2705111,sinestep3.wav,None,1000,11,2905119,335,201.285
B,5,2705111,sinestep3_catch.wav,None,1000,11,2907119,351,203.285
B,5,2705111,sinestep1.wav,None,1000,11,2909119,348,205.285
B,5,2705111,sinestep1.wav,None,1000,11,2911120,329,207.285
B,5,2705111,sinestep3.wav,None,1000,11,2913120,330,209.285
B,5,2705111,silence.wav,None,1000,11,2915120,328,211.285
B,5,2705111,silence.wav,None,1000,11,2917120,335,213.285
B,5,2705111,sinestep5_catch.wav,None,1000,11,2919120,339,215.285
B,5,2705111,sinestep7.wav,None,1000,11,2921120,346,217.285
B,5,2705111,sinestep7.wav,None,1000,11,2923119,315,219.285
B,5,2705111,vowelstep3.wav,None,1000,11,2925119,328,221.285
B,5,2705111,sinestep1_catch.wav,1,79,11,2927119,327,223.285
B,5,2705111,vowelstep5.wav,None,1000,11,2929120,1259,225.285
B,5,2705111,sinestep1.wav,None,1000,11,2931120,338,227.285
B,5,2705111,vowelstep1.wav,None,1000,11,2933120,334,229.285
B,5,2705111,vowelstep1.wav,None,1000,11,2935120,338,231.285
B,5,2705111,sinestep5.wav,None,1000,11,2937120,344,233.285
B,5,2705111,silence.wav,None,1000,11,2939120,328,235.285
B,5,2705111,silence.wav,None,1000,11,2941120,326,237.285
B,5,2705111,vowelstep1.wav,None,1000,11,2943120,328,239.285
B,5,2705111,vowelstep1.wav,None,1000,11,2945120,336,241.285
B,5,2705111,silence.wav,None,1000,11,2947121,336,243.285
B,5,2705111,vowelstep1_catch.wav,1,181,11,2949120,329,245.285
B,5,2705111,sinestep7.wav,None,1000,11,2951120,1144,247.285
B,5,2705111,sinestep1.wav,None,1000,11,2953120,319,249.285
B,5,2705111,vowelstep1.wav,None,1000,11,2955120,327,251.285
B,5,2705111,vowelstep3.wav,None,1000,11,2957120,334,253.285
B,5,2705111,sinestep3.wav,None,1000,11,2959120,336,255.285
B,5,2705111,silence.wav,None,1000,11,2961120,334,257.285
B,5,2705111,vowelstep3.wav,None,1000,11,2963121,337,259.285
B,5,2705111,silence.wav,None,1000,11,2965121,324,261.285
B,5,2705111,vowelstep3.wav,None,1000,11,2967121,320,263.285
B,5,2705111,sinestep5.wav,None,1000,11,2969121,325,265.285
B,5,2705111,vowelstep3_catch.wav,1,292,11,2971121,325,267.285
B,5,2705111,sinestep3.wav,None,1000,11,2973120,1040,269.285
B,5,2705111,sinestep1.wav,None,1000,11,2975120,334,271.285
B,5,2705111,vowelstep3.wav,None,1000,11,2977120,336,273.285
B,5,2705111,vowelstep1.wav,None,1000,11,2979120,346,275.285
B,5,2705111,vowelstep5_catch.wav,1,908,11,2981121,326,277.285
B,5,2705111,vowelstep1.wav,None,1000,11,2983121,417,279.285
B,5,2705111,vowelstep5.wav,None,1000,11,2985121,325,281.285
B,5,2705111,sinestep7.wav,None,1000,11,2987121,335,283.285
B,5,2705111,vowelstep7.wav,None,1000,11,2989121,333,285.285
B,5,2705111,vowelstep1_catch.wav,1,370,11,2991121,332,287.285
B,5,2705111,sinestep1.wav,None,1000,11,2993121,971,289.285
B,5,2705111,vowelstep1.wav,None,1000,11,2995121,324,291.285
B,5,2705111,sinestep5.wav,None,1000,11,2997120,339,293.285
B,5,2705111,vowelstep7.wav,None,1000,11,2999121,354,295.285
B,5,2705111,sinestep7.wav,None,1000,11,3001121,328,297.285
B,5,2705111,vowelstep7_catch.wav,None,1000,11,3003121,334,299.285
B,5,2705111,sinestep3.wav,None,1000,11,3005121,332,301.285
B,5,2705111,vowelstep3.wav,None,1000,11,3007121,344,303.285
B,5,2705111,sinestep5.wav,None,1000,11,3009121,344,305.285
B,5,2705111,vowelstep1.wav,None,1000,11,3011121,344,307.285
B,5,2705111,vowelstep7.wav,None,1000,11,3013121,354,309.285
B,5,2705111,vowelstep1.wav,None,1000,11,3015121,325,311.285
B,5,2705111,sinestep7.wav,None,1000,11,3017122,329,313.285
B,5,2705111,sinestep3.wav,None,1000,11,3019122,333,315.285
B,5,2705111,silence.wav,None,1000,11,3021121,340,317.285
B,5,2705111,vowelstep1.wav,None,1000,11,3023121,341,319.285
H,6,3081663,sinestep3.wav,None,1000,11,3081672,0,1.285
H,6,3081663,sinestep7.wav,None,1000,11,3083672,342,3.285
H,6,3081663,sinestep3.wav,None,1000,11,3085673,338,5.285
H,6,3081663,vowelstep3.wav,None,1000,11,3087673,340,7.285
H,6,3081663,vowelstep1.wav,None,1000,11,3089673,318,9.285
H,6,3081663,sinestep7.wav,None,1000,11,3091673,329,11.285
H,6,3081663,vowelstep3.wav,None,1000,11,3093672,328,13.285
H,6,3081663,silence.wav,None,1000,11,3095672,326,15.285
H,6,3081663,vowelstep1.wav,None,1000,11,3097672,334,17.285
H,6,3081663,sinestep5.wav,None,1000,11,3099672,337,19.285
H,6,3081663,sinestep7.wav,None,1000,11,3101672,338,21.285
H,6,3081663,vowelstep7.wav,None,1000,11,3103673,344,23.285
H,6,3081663,vowelstep1_catch.wav,1,174,11,3105673,326,25.285
H,6,3081663,sinestep5.wav,None,1000,11,3107673,1153,27.285
H,6,3081663,vowelstep5.wav,None,1000,11,3109673,329,29.285
H,6,3081663,silence.wav,None,1000,11,3111673,338,31.285
H,6,3081663,vowelstep3_catch.wav,1,626,11,3113673,333,33.285
H,6,3081663,sinestep7.wav,None,1000,11,3115673,710,35.285
H,6,3081663,sinestep5.wav,None,1000,11,3117672,335,37.285
H,6,3081663,silence.wav,None,1000,11,3119672,322,39.285
H,6,3081663,vowelstep3.wav,None,1000,11,3121673,327,41.285
H,6,3081663,vowelstep1.wav,None,1000,11,3123673,328,43.285
H,6,3081663,vowelstep1.wav,None,1000,11,3125673,339,45.285
H,6,3081663,vowelstep3.wav,None,1000,11,3127673,338,47.285
H,6,3081663,sinestep3.wav,None,1000,11,3129673,333,49.285
H,6,3081663,vowelstep1.wav,None,1000,11,3131673,337,51.285
H,6,3081663,sinestep7.wav,None,1000,11,3133673,327,53.285
H,6,3081663,vowelstep7.wav,None,1000,11,3135673,328,55.285
H,6,3081663,vowelstep5_catch.wav,1,209,11,3137673,324,57.285
H,6,3081663,vowelstep5.wav,None,1000,11,3139674,1111,59.285
H,6,3081663,vowelstep3.wav,None,1000,11,3141673,337,61.285
H,6,3081663,vowelstep7_catch.wav,1,420,11,3143673,330,63.285
H,6,3081663,sinestep3.wav,None,1000,11,3145673,914,65.285
H,6,3081663,sinestep1.wav,None,1000,11,3147673,318,67.285
H,6,3081663,sinestep7.wav,None,1000,11,3149673,324,69.285
H,6,3081663,silence.wav,None,1000,11,3151673,327,71.285
H,6,3081663,vowelstep1.wav,None,1000,11,3153673,327,73.285
H,6,3081663,vowelstep7.wav,None,1000,11,3155674,335,75.285
H,6,3081663,sinestep7.wav,None,1000,11,3157674,333,77.285
H,6,3081663,sinestep1.wav,None,1000,11,3159674,335,79.285
H,6,3081663,sinestep7.wav,None,1000,11,3161674,345,81.285
H,6,3081663,sinestep1.wav,None,1000,11,3163674,326,83.285
H,6,3081663,vowelstep5.wav,None,1000,11,3165673,326,85.285
H,6,3081663,sinestep3.wav,None,1000,11,3167673,326,87.285
H,6,3081663,vowelstep5.wav,None,1000,11,3169673,335,89.285
H,6,3081663,silence.wav,None,1000,11,3171673,336,91.285
H,6,3081663,silence.wav,None,1000,11,3173674,343,93.285
H,6,3081663,sinestep5.wav,None,1000,11,3175674,343,95.285
H,6,3081663,sinestep3.wav,None,1000,11,3177674,323,97.285
H,6,3081663,sinestep7.wav,None,1000,11,3179674,322,99.285
H,6,3081663,sinestep7_catch.wav,1,218,11,3181674,320,101.285
H,6,3081663,silence.wav,None,1000,11,3183674,1115,103.285
H,6,3081663,sinestep3.wav,None,1000,11,3185674,330,105.285
H,6,3081663,silence.wav,None,1000,11,3187674,335,107.285
H,6,3081663,vowelstep1.wav,None,1000,11,3189674,314,109.285
H,6,3081663,vowelstep7.wav,None,1000,11,3191674,320,111.285
H,6,3081663,sinestep5.wav,1,68,11,3193674,325,113.285
H,6,3081663,silence.wav,None,1000,11,3195674,1250,115.285
H,6,3081663,vowelstep7.wav,None,1000,11,3197674,330,117.285
H,6,3081663,vowelstep3.wav,None,1000,11,3199674,332,119.285
H,6,3081663,sinestep5.wav,None,1000,11,3201674,328,121.285
H,6,3081663,sinestep1.wav,None,1000,11,3203674,340,123.285
H,6,3081663,vowelstep3.wav,None,1000,11,3205674,322,125.285
H,6,3081663,vowelstep3.wav,None,1000,11,3207674,323,127.285
H,6,3081663,vowelstep5.wav,None,1000,11,3209675,322,129.285
H,6,3081663,vowelstep1.wav,None,1000,11,3211675,329,131.285
H,6,3081663,vowelstep7.wav,None,1000,11,3213674,331,133.285
H,6,3081663,vowelstep3.wav,None,1000,11,3215674,326,135.285
H,6,3081663,vowelstep5.wav,None,1000,11,3217674,338,137.285
H,6,3081663,vowelstep5.wav,None,1000,11,3219674,312,139.285
H,6,3081663,sinestep7.wav,None,1000,11,3221674,324,141.285
H,6,3081663,vowelstep1.wav,None,1000,11,3223674,323,143.285
H,6,3081663,sinestep3.wav,None,1000,11,3225675,330,145.285
H,6,3081663,sinestep1.wav,None,1000,11,3227675,329,147.285
H,6,3081663,vowelstep1.wav,None,1000,11,3229675,329,149.285
H,6,3081663,sinestep5_catch.wav,None,1000,11,3231675,325,151.285
H,6,3081663,sinestep7.wav,None,1000,11,3233675,339,153.285
H,6,3081663,sinestep3_catch.wav,1,281,11,3235675,342,155.285
H,6,3081663,sinestep7.wav,None,1000,11,3237675,1064,157.285
H,6,3081663,sinestep5.wav,None,1000,11,3239674,332,159.285
H,6,3081663,silence.wav,None,1000,11,3241674,330,161.285
H,6,3081663,sinestep1_catch.wav,1,95,11,3243675,332,163.285
H,6,3081663,vowelstep7.wav,None,1000,11,3245675,1244,165.285
H,6,3081663,vowelstep7.wav,None,1000,11,3247675,336,167.285
H,6,3081663,sinestep7.wav,None,1000,11,3249675,341,169.285
H,6,3081663,sinestep3.wav,None,1000,11,3251675,341,171.285
H,6,3081663,sinestep5.wav,None,1000,11,3253675,328,173.285
H,6,3081663,vowelstep1_catch.wav,None,1000,11,3255675,330,175.285
H,6,3081663,vowelstep1.wav,None,1000,11,3257675,332,177.285
H,6,3081663,sinestep3.wav,None,1000,11,3259675,331,179.285
H,6,3081663,sinestep3.wav,None,1000,11,3261676,341,181.285
H,6,3081663,vowelstep5.wav,None,1000,11,3263675,340,183.285
H,6,3081663,sinestep1.wav,None,1000,11,3265675,348,185.285
H,6,3081663,sinestep1.wav,None,1000,11,3267675,321,187.285
H,6,3081663,vowelstep7.wav,None,1000,11,3269675,330,189.285
H,6,3081663,sinestep1.wav,None,1000,11,3271675,329,191.285
H,6,3081663,sinestep5.wav,None,1000,11,3273675,326,193.285
H,6,3081663,vowelstep3_catch.wav,1,188,11,3275675,340,195.285
H,6,3081663,sinestep1.wav,None,1000,11,3277675,1151,197.285
H,6,3081663,silence.wav,None,1000,11,3279676,338,199.285
H,6,3081663,vowelstep1.wav,None,1000,11,3281676,317,201.285
H,6,3081663,vowelstep5_catch.wav,None,1000,11,3283676,327,203.285
H,6,3081663,sinestep5.wav,None,1000,11,3285676,330,205.285
H,6,3081663,sinestep1.wav,None,1000,11,3287675,329,207.285
H,6,3081663,silence.wav,None,1000,11,3289675,338,209.285
H,6,3081663,sinestep3.wav,None,1000,11,3291675,338,211.285
H,6,3081663,silence.wav,None,1000,11,3293675,335,213.285
H,6,3081663,vowelstep7_catch.wav,None,1000,11,3295676,348,215.285
H,6,3081663,vowelstep5.wav,None,1000,11,3297676,323,217.285
H,6,3081663,sinestep7.wav,None,1000,11,3299676,325,219.285
H,6,3081663,silence.wav,None,1000,11,3301676,325,221.285
H,6,3081663,sinestep1.wav,None,1000,11,3303676,337,223.285
H,6,3081663,silence.wav,None,1000,11,3305676,332,225.285
H,6,3081663,silence.wav,None,1000,11,3307676,336,227.285
H,6,3081663,silence.wav,None,1000,11,3309676,317,229.285
H,6,3081663,silence.wav,None,1000,11,3311675,327,231.285
H,6,3081663,sinestep5.wav,None,1000,11,3313676,326,233.285
H,6,3081663,silence.wav,None,1000,11,3315676,326,235.285
H,6,3081663,vowelstep3.wav,None,1000,11,3317676,336,237.285
H,6,3081663,silence.wav,None,1000,11,3319676,336,239.285
H,6,3081663,silence.wav,None,1000,11,3321676,337,241.285
H,6,3081663,vowelstep1_catch.wav,1,125,11,3323676,312,243.285
H,6,3081663,vowelstep5.wav,None,1000,11,3325676,1196,245.285
H,6,3081663,vowelstep7.wav,None,1000,11,3327676,327,247.285
H,6,3081663,vowelstep3_catch.wav,1,461,11,3329676,321,249.285
H,6,3081663,vowelstep1.wav,None,1000,11,3331677,875,251.285
H,6,3081663,sinestep3.wav,None,1000,11,3333677,335,253.285
H,6,3081663,vowelstep5_catch.wav,None,1000,11,3335676,336,255.285
H,6,3081663,vowelstep5.wav,None,1000,11,3337676,346,257.285
H,6,3081663,silence.wav,None,1000,11,3339676,325,259.285
H,6,3081663,vowelstep7.wav,None,1000,11,3341676,326,261.285
H,6,3081663,sinestep5.wav,None,1000,11,3343676,323,263.285
H,6,3081663,vowelstep5.wav,None,1000,11,3345676,335,265.285
H,6,3081663,vowelstep7.wav,None,1000,11,3347677,333,267.285
H,6,3081663,vowelstep3.wav,None,1000,11,3349677,334,269.285
H,6,3081663,vowelstep3.wav,None,1000,11,3351677,340,271.285
H,6,3081663,silence.wav,None,1000,11,3353677,314,273.285
H,6,3081663,vowelstep3.wav,None,1000,11,3355677,322,275.285
H,6,3081663,sinestep1.wav,None,1000,11,3357677,324,277.285
H,6,3081663,silence.wav,None,1000,11,3359676,323,279.285
H,6,3081663,sinestep1.wav,None,1000,11,3361676,335,281.285
H,6,3081663,vowelstep3.wav,None,1000,11,3363676,335,283.285
H,6,3081663,silence.wav,None,1000,11,3365677,331,285.285
H,6,3081663,vowelstep5.wav,None,1000,11,3367677,343,287.285
H,6,3081663,vowelstep5.wav,None,1000,11,3369677,322,289.285
H,6,3081663,vowelstep1.wav,None,1000,11,3371677,325,291.285
H,6,3081663,sinestep5.wav,None,1000,11,3373677,323,293.285
H,6,3081663,vowelstep7.wav,None,1000,11,3375677,333,295.285
H,6,3081663,vowelstep1.wav,None,1000,11,3377677,333,297.285
H,6,3081663,vowelstep7.wav,None,1000,11,3379677,339,299.285
H,6,3081663,vowelstep3.wav,None,1000,11,3381677,313,301.285
H,6,3081663,sinestep1.wav,None,1000,11,3383677,321,303.285
H,6,3081663,sinestep5.wav,None,1000,11,3385677,322,305.285
H,6,3081663,vowelstep5.wav,None,1000,11,3387677,333,307.285
H,6,3081663,sinestep3.wav,None,1000,11,3389677,329,309.285
H,6,3081663,vowelstep7.wav,None,1000,11,3391677,331,311.285
H,6,3081663,sinestep7.wav,None,1000,11,3393677,326,313.285
H,6,3081663,sinestep5.wav,None,1000,11,3395677,343,315.285
H,6,3081663,sinestep3.wav,None,1000,11,3397677,320,317.285
H,6,3081663,sinestep1.wav,None,1000,11,3399677,322,319.285
D,7,3460504,sinestep5.wav,None,1000,11,3460512,0,1.285
D,7,3460504,vowelstep1_catch.wav,1,141,11,3462512,338,3.285
D,7,3460504,sinestep7.wav,None,1000,11,3464511,1195,5.285
D,7,3460504,vowelstep3.wav,None,1000,11,3466511,333,7.285
D,7,3460504,vowelstep3_catch.wav,1,78,11,3468511,335,9.285
D,7,3460504,vowelstep5_catch.wav,None,1000,11,3470512,1268,11.285
D,7,3460504,sinestep7.wav,None,1000,11,3472512,329,13.285
D,7,3460504,silence.wav,None,1000,11,3474512,328,15.285
D,7,3460504,vowelstep7_catch.wav,1,188,11,3476512,329,17.285
D,7,3460504,vowelstep7.wav,None,1000,11,3478512,1148,19.285
D,7,3460504,vowelstep3.wav,None,1000,11,3480512,337,21.285
D,7,3460504,vowelstep7_catch.wav,1,57,11,3482512,339,23.285
D,7,3460504,vowelstep5.wav,None,1000,11,3484512,1290,25.285
D,7,3460504,sinestep7.wav,None,1000,11,3486512,329,27.285
D,7,3460504,silence.wav,None,1000,11,3488512,323,29.285
D,7,3460504,vowelstep1.wav,None,1000,11,3490512,328,31.285
D,7,3460504,vowelstep1.wav,None,1000,11,3492512,338,33.285
D,7,3460504,vowelstep7.wav,None,1000,11,3494512,335,35.285
D,7,3460504,vowelstep3.wav,None,1000,11,3496512,335,37.285
D,7,3460504,sinestep3.wav,None,1000,11,3498512,348,39.285
D,7,3460504,sinestep1.wav,None,1000,11,3500512,317,41.285
D,7,3460504,vowelstep1.wav,None,1000,11,3502512,329,43.285
D,7,3460504,vowelstep1.wav,None,1000,11,3504512,325,45.285
D,7,3460504,sinestep7.wav,None,1000,11,3506513,339,47.285
D,7,3460504,sinestep3.wav,None,1000,11,3508513,336,49.285
D,7,3460504,vowelstep5_catch.wav,1,126,11,3510513,337,51.285
D,7,3460504,sinestep7.wav,None,1000,11,3512513,1202,53.285
D,7,3460504,vowelstep5.wav,None,1000,11,3514512,326,55.285
D,7,3460504,sinestep3.wav,None,1000,11,3516512,327,57.285
D,7,3460504,sinestep7.wav,None,1000,11,3518512,325,59.285
D,7,3460504,vowelstep3.wav,None,1000,11,3520512,326,61.285
D,7,3460504,vowelstep3.wav,None,1000,11,3522513,337,63.285
D,7,3460504,vowelstep3_catch.wav,1,228,11,3524513,335,65.285
D,7,3460504,silence.wav,None,1000,11,3526513,1117,67.285
D,7,3460504,vowelstep7.wav,None,1000,11,3528513,325,69.285
D,7,3460504,silence.wav,None,1000,11,3530513,324,71.285
D,7,3460504,sinestep1.wav,None,1000,11,3532513,323,73.285
D,7,3460504,vowelstep5.wav,None,1000,11,3534513,335,75.285
D,7,3460504,vowelstep1.wav,None,1000,11,3536512,333,77.285
D,7,3460504,sinestep7.wav,None,1000,11,3538512,332,79.285
D,7,3460504,vowelstep1.wav,None,1000,11,3540513,334,81.285
D,7,3460504,sinestep7.wav,None,1000,11,3542513,322,83.285
D,7,3460504,vowelstep7.wav,None,1000,11,3544513,322,85.285
D,7,3460504,vowelstep5.wav,None,1000,11,3546513,324,87.285
D,7,3460504,vowelstep1.wav,None,1000,11,3548513,354,89.285
D,7,3460504,sinestep5.wav,None,1000,11,3550513,332,91.285
D,7,3460504,sinestep5.wav,None,1000,11,3552513,330,93.285
D,7,3460504,vowelstep3.wav,None,1000,11,3554513,333,95.285
D,7,3460504,silence.wav,None,1000,11,3556513,344,97.285
D,7,3460504,sinestep1.wav,None,1000,11,3558514,338,99.285
D,7,3460504,sinestep1.wav,None,1000,11,3560513,341,101.285
D,7,3460504,sinestep3.wav,None,1000,11,3562513,320,103.285
D,7,3460504,vowelstep1.wav,None,1000,11,3564513,327,105.285
D,7,3460504,sinestep7.wav,None,1000,11,3566513,332,107.285
D,7,3460504,vowelstep3.wav,None,1000,11,3568513,331,109.285
D,7,3460504,silence.wav,None,1000,11,3570513,343,111.285
D,7,3460504,vowelstep5.wav,None,1000,11,3572513,341,113.285
D,7,3460504,vowelstep1.wav,None,1000,11,3574513,342,115.285
D,7,3460504,vowelstep1_catch.wav,1,182,11,3576514,343,117.285
D,7,3460504,vowelstep7.wav,None,1000,11,3578514,1149,119.285
D,7,3460504,sinestep5.wav,None,1000,11,3580514,332,121.285
D,7,3460504,vowelstep7.wav,None,1000,11,3582514,332,123.285
D,7,3460504,sinestep1.wav,None,1000,11,3584514,342,125.285
D,7,3460504,sinestep1.wav,None,1000,11,3586513,342,127.285
D,7,3460504,vowelstep3.wav,None,1000,11,3588513,342,129.285
D,7,3460504,sinestep1.wav,None,1000,11,3590513,322,131.285
D,7,3460504,silence.wav,None,1000,11,3592514,329,133.285
D,7,3460504,sinestep3.wav,None,1000,11,3594514,331,135.285
D,7,3460504,silence.wav,None,1000,11,3596514,328,137.285
D,7,3460504,vowelstep3.wav,None,1000,11,3598514,336,139.285
D,7,3460504,vowelstep5.wav,None,1000,11,3600514,341,141.285
D,7,3460504,silence.wav,None,1000,11,3602514,342,143.285
D,7,3460504,sinestep5.wav,None,1000,11,3604514,352,145.285
D,7,3460504,sinestep5.wav,None,1000,11,3606514,330,147.285
D,7,3460504,sinestep1.wav,None,1000,11,3608514,328,149.285
D,7,3460504,vowelstep5.wav,None,1000,11,3610514,329,151.285
D,7,3460504,vowelstep5.wav,None,1000,11,3612514,337,153.285
D,7,3460504,sinestep1_catch.wav,1,56,11,3614514,340,155.285
D,7,3460504,sinestep5.wav,None,1000,11,3616514,1283,157.285
D,7,3460504,vowelstep3.wav,None,1000,11,3618514,348,159.285
D,7,3460504,vowelstep7.wav,None,1000,11,3620514,330,161.285
D,7,3460504,vowelstep3.wav,None,1000,11,3622514,326,163.285
D,7,3460504,sinestep3.wav,None,1000,11,3624514,330,165.285
D,7,3460504,sinestep1.wav,None,1000,11,3626514,339,167.285
D,7,3460504,silence.wav,None,1000,11,3628515,340,169.285
D,7,3460504,sinestep1.wav,None,1000,11,3630515,339,171.285
D,7,3460504,vowelstep1.wav,None,1000,11,3632515,348,173.285
D,7,3460504,vowelstep3.wav,None,1000,11,3634514,317,175.285
D,7,3460504,silence.wav,None,1000,11,3636514,328,177.285
D,7,3460504,sinestep7.wav,None,1000,11,3638514,327,179.285
D,7,3460504,silence.wav,None,1000,11,3640514,327,181.285
D,7,3460504,vowelstep7.wav,None,1000,11,3642514,335,183.285
D,7,3460504,sinestep3.wav,None,1000,11,3644514,339,185.285
D,7,3460504,vowelstep1.wav,None,1000,11,3646515,337,187.285
D,7,3460504,sinestep7.wav,None,1000,11,3648515,347,189.285
D,7,3460504,silence.wav,None,1000,11,3650515,328,191.285
D,7,3460504,sinestep1.wav,None,1000,11,3652515,328,193.285
D,7,3460504,sinestep3.wav,None,1000,11,3654515,328,195.285
D,7,3460504,sinestep5.wav,None,1000,11,3656515,332,197.285
D,7,3460504,vowelstep3.wav,None,1000,11,3658514,336,199.285
D,7,3460504,sinestep5.wav,None,1000,11,3660514,346,201.285
D,7,3460504,sinestep5.wav,None,1000,11,3662515,317,203.285
D,7,3460504,sinestep3.wav,None,1000,11,3664515,327,205.285
D,7,3460504,sinestep3.wav,None,1000,11,3666515,326,207.285
D,7,3460504,sinestep5.wav,None,1000,11,3668515,331,209.285
D,7,3460504,sinestep3_catch.wav,1,136,11,3670515,338,211.285
D,7,3460504,vowelstep7.wav,None,1000,11,3672515,1197,213.285
D,7,3460504,sinestep1.wav,None,1000,11,3674515,336,215.285
D,7,3460504,sinestep7.wav,None,1000,11,3676515,306,217.285
D,7,3460504,vowelstep1.wav,None,1000,11,3678515,327,219.285
D,7,3460504,sinestep5.wav,None,1000,11,3680516,326,221.285
D,7,3460504,silence.wav,None,1000,11,3682515,325,223.285
D,7,3460504,sinestep5_catch.wav,1,129,11,3684515,337,225.285
D,7,3460504,sinestep5.wav,None,1000,11,3686515,1200,227.285
D,7,3460504,silence.wav,None,1000,11,3688515,346,229.285
D,7,3460504,vowelstep7.wav,None,1000,11,3690515,346,231.285
D,7,3460504,sinestep3.wav,None,1000,11,3692515,325,233.285
D,7,3460504,vowelstep5.wav,None,1000,11,3694515,325,235.285
D,7,3460504,vowelstep7.wav,None,1000,11,3696515,336,237.285
D,7,3460504,vowelstep5.wav,None,1000,11,3698516,333,239.285
D,7,3460504,silence.wav,None,1000,11,3700516,334,241.285
D,7,3460504,silence.wav,None,1000,11,3702516,334,243.285
D,7,3460504,silence.wav,None,1000,11,3704516,311,245.285
D,7,3460504,sinestep7.wav,None,1000,11,3706515,325,247.285
D,7,3460504,sinestep5.wav,None,1000,11,3708515,324,249.285
D,7,3460504,sinestep7_catch.wav,1,185,11,3710515,323,251.285
D,7,3460504,vowelstep1.wav,None,1000,11,3712515,1146,253.285
D,7,3460504,vowelstep1.wav,None,1000,11,3714515,335,255.285
D,7,3460504,vowelstep3.wav,None,1000,11,3716516,335,257.285
D,7,3460504,silence.wav,None,1000,11,3718516,341,259.285
D,7,3460504,sinestep5.wav,None,1000,11,3720516,324,261.285
D,7,3460504,vowelstep7.wav,None,1000,11,3722516,318,263.285
D,7,3460504,vowelstep3.wav,None,1000,11,3724516,323,265.285
D,7,3460504,vowelstep7.wav,None,1000,11,3726516,332,267.285
D,7,3460504,vowelstep5.wav,None,1000,11,3728516,332,269.285
D,7,3460504,sinestep1.wav,None,1000,11,3730515,333,271.285
D,7,3460504,sinestep7.wav,None,1000,11,3732516,313,273.285
D,7,3460504,sinestep3.wav,None,1000,11,3734516,322,275.285
D,7,3460504,silence.wav,None,1000,11,3736516,318,277.285
D,7,3460504,sinestep7.wav,None,1000,11,3738516,318,279.285
D,7,3460504,vowelstep5.wav,None,1000,11,3740516,334,281.285
D,7,3460504,sinestep1.wav,None,1000,11,3742516,332,283.285
D,7,3460504,vowelstep1.wav,None,1000,11,3744516,328,285.285
D,7,3460504,sinestep1.wav,None,1000,11,3746516,334,287.285
D,7,3460504,vowelstep5.wav,None,1000,11,3748516,322,289.285
D,7,3460504,silence.wav,None,1000,11,3750517,321,291.285
D,7,3460504,sinestep3.wav,None,1000,11,3752517,321,293.285
D,7,3460504,vowelstep5.wav,None,1000,11,3754517,321,295.285
D,7,3460504,silence.wav,None,1000,11,3756516,333,297.285
D,7,3460504,sinestep3.wav,None,1000,11,3758516,332,299.285
D,7,3460504,vowelstep7.wav,None,1000,11,3760516,341,301.285
D,7,3460504,sinestep7_catch.wav,1,192,11,3762516,322,303.285
D,7,3460504,sinestep5_catch.wav,1,70,11,3764516,1129,305.285
D,7,3460504,sinestep3.wav,None,1000,11,3766516,1251,307.285
D,7,3460504,vowelstep5.wav,None,1000,11,3768517,331,309.285
D,7,3460504,silence.wav,None,1000,11,3770517,327,311.285
D,7,3460504,sinestep3_catch.wav,1,157,11,3772517,329,313.285
D,7,3460504,silence.wav,None,1000,11,3774517,1178,315.285
D,7,3460504,vowelstep7.wav,None,1000,11,3776517,321,317.285
D,7,3460504,silence.wav,None,1000,11,3778516,322,319.285
C,8,3837344,sinestep1.wav,None,1000,11,3837351,0,1.285
C,8,3837344,vowelstep1.wav,1,109,11,3839351,325,3.285
C,8,3837344,sinestep1.wav,None,1000,11,3841351,1214,5.285
C,8,3837344,sinestep1.wav,None,1000,11,3843351,326,7.285
C,8,3837344,vowelstep1.wav,None,1000,11,3845351,336,9.285
C,8,3837344,sinestep1.wav,None,1000,11,3847351,336,11.285
C,8,3837344,sinestep7.wav,None,1000,11,3849351,337,13.285
C,8,3837344,vowelstep7.wav,None,1000,11,3851351,344,15.285
C,8,3837344,vowelstep3.wav,None,1000,11,3853351,326,17.285
C,8,3837344,vowelstep5.wav,None,1000,11,3855352,322,19.285
C,8,3837344,silence.wav,None,1000,11,3857352,319,21.285
C,8,3837344,sinestep3.wav,None,1000,11,3859351,335,23.285
C,8,3837344,vowelstep5.wav,None,1000,11,3861351,331,25.285
C,8,3837344,sinestep1.wav,None,1000,11,3863351,336,27.285
C,8,3837344,vowelstep1.wav,None,1000,11,3865351,344,29.285
C,8,3837344,vowelstep7.wav,None,1000,11,3867351,345,31.285
C,8,3837344,vowelstep3.wav,None,1000,11,3869351,345,33.285
C,8,3837344,sinestep1.wav,None,1000,11,3871351,324,35.285
C,8,3837344,sinestep5.wav,None,1000,11,3873352,333,37.285
C,8,3837344,silence.wav,None,1000,11,3875352,331,39.285
C,8,3837344,vowelstep7.wav,None,1000,11,3877352,333,41.285
C,8,3837344,vowelstep5.wav,None,1000,11,3879352,344,43.285
C,8,3837344,sinestep5.wav,None,1000,11,3881352,325,45.285
C,8,3837344,silence.wav,None,1000,11,3883351,345,47.285
C,8,3837344,sinestep5.wav,None,1000,11,3885351,345,49.285
C,8,3837344,sinestep1.wav,None,1000,11,3887351,334,51.285
C,8,3837344,silence.wav,None,1000,11,3889351,331,53.285
C,8,3837344,vowelstep1.wav,None,1000,11,3891352,333,55.285
C,8,3837344,vowelstep1.wav,None,1000,11,3893352,333,57.285
C,8,3837344,sinestep1.wav,None,1000,11,3895352,343,59.285
C,8,3837344,silence.wav,None,1000,11,3897352,341,61.285
C,8,3837344,vowelstep5.wav,None,1000,11,3899352,353,63.285
C,8,3837344,vowelstep3.wav,None,1000,11,3901352,333,65.285
C,8,3837344,vowelstep3.wav,None,1000,11,3903352,331,67.285
C,8,3837344,vowelstep7.wav,None,1000,11,3905352,333,69.285
C,8,3837344,silence.wav,None,1000,11,3907353,340,71.285
C,8,3837344,vowelstep3.wav,None,1000,11,3909352,342,73.285
C,8,3837344,silence.wav,None,1000,11,3911352,341,75.285
C,8,3837344,sinestep5.wav,None,1000,11,3913352,348,77.285
C,8,3837344,vowelstep7.wav,None,1000,11,3915352,322,79.285
C,8,3837344,vowelstep1_catch.wav,1,97,11,3917352,328,81.285
C,8,3837344,vowelstep3.wav,None,1000,11,3919352,1233,83.285
C,8,3837344,sinestep7.wav,None,1000,11,3921352,340,85.285
C,8,3837344,vowelstep3.wav,None,1000,11,3923352,339,87.285
C,8,3837344,sinestep1.wav,None,1000,11,3925353,343,89.285
C,8,3837344,sinestep7.wav,None,1000,11,3927353,339,91.285
C,8,3837344,sinestep7.wav,None,1000,11,3929353,352,93.285
C,8,3837344,sinestep3.wav,None,1000,11,3931353,332,95.285
C,8,3837344,vowelstep3_catch.wav,1,134,11,3933352,327,97.285
C,8,3837344,sinestep5.wav,None,1000,11,3935352,1196,99.285
C,8,3837344,sinestep5.wav,None,1000,11,3937352,337,101.285
C,8,3837344,vowelstep3.wav,None,1000,11,3939352,341,103.285
C,8,3837344,vowelstep5.wav,None,1000,11,3941352,345,105.285
C,8,3837344,sinestep1.wav,None,1000,11,3943353,322,107.285
C,8,3837344,sinestep3.wav,None,1000,11,3945353,329,109.285
C,8,3837344,vowelstep5.wav,None,1000,11,3947353,330,111.285
C,8,3837344,vowelstep7.wav,None,1000,11,3949353,340,113.285
C,8,3837344,vowelstep1.wav,None,1000,11,3951353,341,115.285
C,8,3837344,sinestep7.wav,None,1000,11,3953353,338,117.285
C,8,3837344,sinestep3.wav,None,1000,11,3955353,340,119.285
C,8,3837344,vowelstep1.wav,None,1000,11,3957352,320,121.285
C,8,3837344,vowelstep1.wav,None,1000,11,3959352,329,123.285
C,8,3837344,sinestep3.wav,None,1000,11,3961353,330,125.285
C,8,3837344,silence.wav,None,1000,11,3963353,330,127.285
C,8,3837344,silence.wav,None,1000,11,3965353,338,129.285
C,8,3837344,vowelstep5_catch.wav,1,220,11,3967353,338,131.285
C,8,3837344,vowelstep5.wav,None,1000,11,3969353,1127,133.285
C,8,3837344,silence.wav,None,1000,11,3971353,345,135.285
C,8,3837344,sinestep1.wav,None,1000,11,3973353,327,137.285
C,8,3837344,vowelstep7.wav,None,1000,11,3975353,327,139.285
C,8,3837344,sinestep7.wav,None,1000,11,3977354,328,141.285
C,8,3837344,silence.wav,None,1000,11,3979354,338,143.285
C,8,3837344,silence.wav,None,1000,11,3981353,334,145.285
C,8,3837344,sinestep7.wav,None,1000,11,3983353,336,147.285
C,8,3837344,vowelstep1.wav,None,1000,11,3985353,346,149.285
C,8,3837344,vowelstep5.wav,None,1000,11,3987353,327,151.285
C,8,3837344,vowelstep5.wav,None,1000,11,3989353,328,153.285
C,8,3837344,vowelstep7.wav,None,1000,11,3991353,328,155.285
C,8,3837344,sinestep7.wav,None,1000,11,3993353,338,157.285
C,8,3837344,vowelstep1.wav,None,1000,11,3995354,337,159.285
C,8,3837344,vowelstep3.wav,None,1000,11,3997354,336,161.285
C,8,3837344,sinestep5.wav,None,1000,11,3999354,347,163.285
C,8,3837344,sinestep7.wav,None,1000,11,4001354,322,165.285
C,8,3837344,sinestep1.wav,None,1000,11,4003354,323,167.285
C,8,3837344,sinestep7.wav,None,1000,11,4005353,325,169.285
C,8,3837344,sinestep3.wav,None,1000,11,4007353,334,171.285
C,8,3837344,silence.wav,None,1000,11,4009353,333,173.285
C,8,3837344,vowelstep7.wav,None,1000,11,4011353,336,175.285
C,8,3837344,sinestep7.wav,None,1000,11,4013354,344,177.285
C,8,3837344,sinestep5.wav,None,1000,11,4015354,325,179.285
C,8,3837344,vowelstep7.wav,None,1000,11,4017354,325,181.285
C,8,3837344,vowelstep5.wav,None,1000,11,4019354,319,183.285
C,8,3837344,vowelstep3.wav,None,1000,11,4021354,336,185.285
C,8,3837344,vowelstep7_catch.wav,1,146,11,4023354,331,187.285
C,8,3837344,vowelstep3.wav,None,1000,11,4025354,1190,189.285
C,8,3837344,vowelstep5.wav,None,1000,11,4027354,335,191.285
C,8,3837344,vowelstep7.wav,None,1000,11,4029354,326,193.285
C,8,3837344,vowelstep7_catch.wav,1,94,11,4031354,324,195.285
C,8,3837344,vowelstep5_catch.wav,1,62,11,4033354,1230,197.285
C,8,3837344,sinestep5.wav,None,1000,11,4035354,1256,199.285
C,8,3837344,sinestep3.wav,None,1000,11,4037354,334,201.285
C,8,3837344,vowelstep3_catch.wav,1,273,11,4039354,333,203.285
C,8,3837344,vowelstep1_catch.wav,None,1000,11,4041354,1068,205.285
C,8,3837344,vowelstep5.wav,None,1000,11,4043354,324,207.285
C,8,3837344,vowelstep1.wav,None,1000,11,4045354,324,209.285
C,8,3837344,sinestep1_catch.wav,1,459,11,4047355,323,211.285
C,8,3837344,sinestep3_catch.wav,1,316,11,4049355,873,213.285
C,8,3837344,sinestep1.wav,None,1000,11,4051355,1011,215.285
C,8,3837344,vowelstep3.wav,None,1000,11,4053354,333,217.285
C,8,3837344,sinestep3.wav,None,1000,11,4055354,333,219.285
C,8,3837344,vowelstep5.wav,None,1000,11,4057354,320,221.285
C,8,3837344,sinestep7.wav,None,1000,11,4059354,320,223.285
C,8,3837344,sinestep1.wav,None,1000,11,4061354,323,225.285
C,8,3837344,sinestep5_catch.wav,1,332,11,4063354,319,227.285
C,8,3837344,vowelstep7.wav,None,1000,11,4065355,997,229.285
C,8,3837344,vowelstep3.wav,None,1000,11,4067355,330,231.285
C,8,3837344,silence.wav,None,1000,11,4069355,333,233.285
C,8,3837344,vowelstep1.wav,None,1000,11,4071355,342,235.285
C,8,3837344,sinestep5.wav,None,1000,11,4073355,322,237.285
C,8,3837344,sinestep1.wav,None,1000,11,4075355,322,239.285
C,8,3837344,vowelstep7.wav,None,1000,11,4077354,322,241.285
C,8,3837344,sinestep3.wav,None,1000,11,4079354,329,243.285
C,8,3837344,sinestep3.wav,None,1000,11,4081354,326,245.285
C,8,3837344,sinestep5.wav,None,1000,11,4083355,333,247.285
C,8,3837344,vowelstep3.wav,None,1000,11,4085355,306,249.285
C,8,3837344,sinestep3.wav,None,1000,11,4087355,318,251.285
C,8,3837344,silence.wav,None,1000,11,4089355,317,253.285
C,8,3837344,sinestep3.wav,None,1000,11,4091355,320,255.285
C,8,3837344,vowelstep1.wav,None,1000,11,4093355,327,257.285
C,8,3837344,silence.wav,None,1000,11,4095355,332,259.285
C,8,3837344,vowelstep1.wav,None,1000,11,4097355,328,261.285
C,8,3837344,silence.wav,None,1000,11,4099355,338,263.285
C,8,3837344,sinestep7.wav,None,1000,11,4101356,318,265.285
C,8,3837344,sinestep3.wav,None,1000,11,4103355,319,267.285
C,8,3837344,vowelstep1.wav,None,1000,11,4105355,321,269.285
C,8,3837344,sinestep7.wav,None,1000,11,4107355,329,271.285
C,8,3837344,sinestep7_catch.wav,1,303,11,4109355,330,273.285
C,8,3837344,vowelstep5.wav,None,1000,11,4111355,1024,275.285
C,8,3837344,silence.wav,None,1000,11,4113355,339,277.285
C,8,3837344,silence.wav,None,1000,11,4115355,336,279.285
C,8,3837344,sinestep3.wav,None,1000,11,4117356,338,281.285
C,8,3837344,vowelstep7.wav,None,1000,11,4119356,348,283.285
C,8,3837344,sinestep5.wav,None,1000,11,4121356,329,285.285
C,8,3837344,sinestep5.wav,None,1000,11,4123356,328,287.285
C,8,3837344,vowelstep3.wav,None,1000,11,4125356,327,289.285
C,8,3837344,sinestep3.wav,None,1000,11,4127355,330,291.285
C,8,3837344,silence.wav,None,1000,11,4129355,336,293.285
C,8,3837344,silence.wav,None,1000,11,4131355,337,295.285
C,8,3837344,vowelstep7.wav,None,1000,11,4133355,349,297.285
C,8,3837344,silence.wav,None,1000,11,4135356,329,299.285
C,8,3837344,vowelstep5.wav,None,1000,11,4137356,328,301.285
C,8,3837344,sinestep5.wav,None,1000,11,4139356,325,303.285
C,8,3837344,silence.wav,None,1000,11,4141356,338,305.285
C,8,3837344,silence.wav,None,1000,11,4143356,337,307.285
C,8,3837344,silence.wav,None,1000,11,4145356,337,309.285
C,8,3837344,sinestep7_catch.wav,1,345,11,4147356,347,311.285
C,8,3837344,sinestep7.wav,None,1000,11,4149356,969,313.285
C,8,3837344,sinestep5_catch.wav,1,170,11,4151355,324,315.285
C,8,3837344,sinestep5.wav,None,1000,11,4153356,1156,317.285
C,8,3837344,sinestep3_catch.wav,1,50,11,4155356,331,319.285
J,9,4212522,sinestep5_catch.wav,1,756,11,4212540,0,1.285
J,9,4212522,sinestep5.wav,None,1000,11,4214540,560,3.285
J,9,4212522,sinestep3.wav,None,1000,11,4216540,331,5.285
J,9,4212522,sinestep1.wav,None,1000,11,4218540,328,7.285
J,9,4212522,sinestep7.wav,None,1000,11,4220540,332,9.285
J,9,4212522,vowelstep3.wav,None,1000,11,4222541,334,11.285
J,9,4212522,sinestep1.wav,None,1000,11,4224541,321,13.285
J,9,4212522,vowelstep5.wav,None,1000,11,4226541,319,15.285
J,9,4212522,vowelstep3.wav,None,1000,11,4228541,321,17.285
J,9,4212522,vowelstep1.wav,None,1000,11,4230540,320,19.285
J,9,4212522,vowelstep1.wav,None,1000,11,4232540,331,21.285
J,9,4212522,sinestep3.wav,None,1000,11,4234540,325,23.285
J,9,4212522,silence.wav,None,1000,11,4236540,342,25.285
J,9,4212522,vowelstep7.wav,None,1000,11,4238540,341,27.285
J,9,4212522,sinestep3.wav,None,1000,11,4240541,317,29.285
J,9,4212522,sinestep7.wav,None,1000,11,4242541,319,31.285
J,9,4212522,silence.wav,None,1000,11,4244541,319,33.285
J,9,4212522,vowelstep5.wav,None,1000,11,4246541,329,35.285
J,9,4212522,sinestep1.wav,None,1000,11,4248541,329,37.285
J,9,4212522,sinestep1_catch.wav,1,122,11,4250541,339,39.285
J,9,4212522,sinestep7.wav,None,1000,11,4252541,1185,41.285
J,9,4212522,vowelstep7.wav,None,1000,11,4254541,319,43.285
J,9,4212522,sinestep3_catch.wav,1,82,11,4256540,313,45.285
J,9,4212522,vowelstep3.wav,None,1000,11,4258541,1240,47.285
J,9,4212522,vowelstep7.wav,None,1000,11,4260541,326,49.285
J,9,4212522,sinestep1.wav,None,1000,11,4262541,328,51.285
J,9,4212522,vowelstep3.wav,None,1000,11,4264541,335,53.285
J,9,4212522,vowelstep1.wav,None,1000,11,4266541,339,55.285
J,9,4212522,sinestep5.wav,None,1000,11,4268541,318,57.285
J,9,4212522,sinestep5_catch.wav,1,25,11,4270541,315,59.285
J,9,4212522,sinestep5.wav,None,1000,11,4272541,1287,61.285
J,9,4212522,vowelstep7.wav,None,1000,11,4274525,328,63.285
J,9,4212522,sinestep7.wav,None,1000,11,4276542,328,65.285
J,9,4212522,vowelstep1.wav,None,1000,11,4278542,326,67.285
J,9,4212522,sinestep7_catch.wav,1,212,11,4280541,302,69.285
J,9,4212522,silence.wav,None,1000,11,4282541,1103,71.285
J,9,4212522,vowelstep5.wav,None,1000,11,4284541,318,73.285
J,9,4212522,sinestep5.wav,None,1000,11,4286524,326,75.285
J,9,4212522,sinestep5.wav,None,1000,11,4288541,343,77.285
J,9,4212522,vowelstep3.wav,None,1000,11,4290541,325,79.285
J,9,4212522,vowelstep5.wav,None,1000,11,4292525,327,81.285
J,9,4212522,sinestep3.wav,None,1000,11,4294525,336,83.285
J,9,4212522,silence.wav,None,1000,11,4296542,336,85.285
J,9,4212522,vowelstep3.wav,None,1000,11,4298542,316,87.285
J,9,4212522,vowelstep7.wav,None,1000,11,4300542,317,89.285
J,9,4212522,silence.wav,None,1000,11,4302525,327,91.285
J,9,4212522,sinestep3.wav,None,1000,11,4304525,343,93.285
J,9,4212522,silence.wav,None,1000,11,4306541,355,95.285
J,9,4212522,sinestep1.wav,None,1000,11,4308541,336,97.285
J,9,4212522,sinestep5_catch.wav,1,210,11,4310526,316,99.285
J,9,4212522,sinestep7.wav,None,1000,11,4312542,1122,101.285
J,9,4212522,sinestep5.wav,None,1000,11,4314542,309,103.285
J,9,4212522,sinestep5.wav,None,1000,11,4316542,323,105.285
J,9,4212522,sinestep3.wav,None,1000,11,4318525,324,107.285
J,9,4212522,sinestep3_catch.wav,1,167,11,4320525,355,109.285
J,9,4212522,sinestep3.wav,None,1000,11,4322525,1167,111.285
J,9,4212522,silence.wav,None,1000,11,4324525,335,113.285
J,9,4212522,sinestep1.wav,None,1000,11,4326542,336,115.285
J,9,4212522,silence.wav,None,1000,11,4328526,314,117.285
J,9,4212522,vowelstep3.wav,None,1000,11,4330526,341,119.285
J,9,4212522,vowelstep5.wav,None,1000,11,4332542,344,121.285
J,9,4212522,vowelstep7.wav,None,1000,11,4334526,321,123.285
J,9,4212522,silence.wav,None,1000,11,4336542,326,125.285
J,9,4212522,sinestep1.wav,None,1000,11,4338525,309,127.285
J,9,4212522,sinestep3.wav,None,1000,11,4340525,334,129.285
J,9,4212522,sinestep7.wav,None,1000,11,4342525,344,131.285
J,9,4212522,silence.wav,None,1000,11,4344526,340,133.285
J,9,4212522,sinestep1.wav,None,1000,11,4346526,343,135.285
J,9,4212522,vowelstep7.wav,None,1000,11,4348526,344,137.285
J,9,4212522,sinestep5.wav,None,1000,11,4350526,327,139.285
J,9,4212522,vowelstep1.wav,None,1000,11,4352526,333,141.285
J,9,4212522,vowelstep7.wav,None,1000,11,4354526,333,143.285
J,9,4212522,vowelstep3.wav,None,1000,11,4356526,343,145.285
J,9,4212522,vowelstep3.wav,None,1000,11,4358526,343,147.285
J,9,4212522,sinestep7.wav,None,1000,11,4360525,342,149.285
J,9,4212522,vowelstep5.wav,None,1000,11,4362526,353,151.285
J,9,4212522,silence.wav,None,1000,11,4364526,332,153.285
J,9,4212522,sinestep1.wav,None,1000,11,4366526,328,155.285
J,9,4212522,sinestep3.wav,None,1000,11,4368526,327,157.285
J,9,4212522,silence.wav,None,1000,11,4370526,343,159.285
J,9,4212522,sinestep1.wav,None,1000,11,4372526,342,161.285
J,9,4212522,vowelstep7.wav,None,1000,11,4374526,339,163.285
J,9,4212522,vowelstep7.wav,None,1000,11,4376526,342,165.285
J,9,4212522,sinestep1_catch.wav,1,389,11,4378526,332,167.285
J,9,4212522,vowelstep1_catch.wav,1,139,11,4380527,941,169.285
J,9,4212522,vowelstep1.wav,None,1000,11,4382527,1189,171.285
J,9,4212522,vowelstep7.wav,None,1000,11,4384526,332,173.285
J,9,4212522,sinestep1.wav,None,1000,11,4386526,341,175.285
J,9,4212522,vowelstep5.wav,None,1000,11,4388526,339,177.285
J,9,4212522,vowelstep5.wav,None,1000,11,4390526,347,179.285
J,9,4212522,sinestep5.wav,None,1000,11,4392526,350,181.285
J,9,4212522,sinestep7.wav,None,1000,11,4394526,330,183.285
J,9,4212522,sinestep7.wav,None,1000,11,4396526,331,185.285
J,9,4212522,sinestep1.wav,None,1000,11,4398527,330,187.285
J,9,4212522,vowelstep1.wav,None,1000,11,4400527,338,189.285
J,9,4212522,silence.wav,None,1000,11,4402527,338,191.285
J,9,4212522,sinestep5.wav,None,1000,11,4404527,340,193.285
J,9,4212522,vowelstep5.wav,None,1000,11,4406527,321,195.285
J,9,4212522,vowelstep1.wav,None,1000,11,4408526,328,197.285
J,9,4212522,vowelstep1.wav,None,1000,11,4410526,330,199.285
J,9,4212522,sinestep3.wav,None,1000,11,4412526,336,201.285
J,9,4212522,sinestep3.wav,None,1000,11,4414527,340,203.285
J,9,4212522,silence.wav,None,1000,11,4416527,340,205.285
J,9,4212522,sinestep5.wav,None,1000,11,4418527,340,207.285
J,9,4212522,vowelstep1.wav,None,1000,11,4420527,348,209.285
J,9,4212522,vowelstep5.wav,None,1000,11,4422527,328,211.285
J,9,4212522,vowelstep3.wav,None,1000,11,4424527,320,213.285
J,9,4212522,vowelstep3.wav,None,1000,11,4426527,323,215.285
J,9,4212522,silence.wav,None,1000,11,4428527,335,217.285
J,9,4212522,sinestep1.wav,None,1000,11,4430527,334,219.285
J,9,4212522,vowelstep3.wav,None,1000,11,4432527,339,221.285
J,9,4212522,sinestep7.wav,None,1000,11,4434527,317,223.285
J,9,4212522,vowelstep7.wav,None,1000,11,4436527,321,225.285
J,9,4212522,silence.wav,None,1000,11,4438527,326,227.285
J,9,4212522,vowelstep5.wav,None,1000,11,4440527,324,229.285
J,9,4212522,silence.wav,None,1000,11,4442527,338,231.285
J,9,4212522,sinestep3.wav,None,1000,11,4444527,337,233.285
J,9,4212522,vowelstep5.wav,None,1000,11,4446527,334,235.285
J,9,4212522,vowelstep3.wav,None,1000,11,4448527,335,237.285
J,9,4212522,vowelstep5.wav,None,1000,11,4450528,329,239.285
J,9,4212522,vowelstep7.wav,None,1000,11,4452528,327,241.285
J,9,4212522,vowelstep1.wav,None,1000,11,4454528,328,243.285
J,9,4212522,sinestep7.wav,None,1000,11,4456527,327,245.285
J,9,4212522,sinestep7.wav,None,1000,11,4458527,337,247.285
J,9,4212522,silence.wav,None,1000,11,4460527,331,249.285
J,9,4212522,vowelstep1.wav,None,1000,11,4462527,346,251.285
J,9,4212522,vowelstep3_catch.wav,1,194,11,4464527,327,253.285
J,9,4212522,vowelstep1.wav,None,1000,11,4466527,1129,255.285
J,9,4212522,vowelstep5_catch.wav,1,59,11,4468528,326,257.285
J,9,4212522,silence.wav,None,1000,11,4470528,1272,259.285
J,9,4212522,sinestep5.wav,None,1000,11,4472528,324,261.285
J,9,4212522,vowelstep1.wav,None,1000,11,4474528,335,263.285
J,9,4212522,sinestep5.wav,None,1000,11,4476528,336,265.285
J,9,4212522,vowelstep3.wav,None,1000,11,4478528,324,267.285
J,9,4212522,sinestep5.wav,None,1000,11,4480527,326,269.285
J,9,4212522,sinestep7.wav,None,1000,11,4482527,320,271.285
J,9,4212522,silence.wav,None,1000,11,4484528,324,273.285
J,9,4212522,vowelstep7_catch.wav,1,209,11,4486528,333,275.285
J,9,4212522,sinestep3.wav,None,1000,11,4488528,1118,277.285
J,9,4212522,vowelstep5.wav,None,1000,11,4490528,336,279.285
J,9,4212522,silence.wav,None,1000,11,4492528,323,281.285
J,9,4212522,silence.wav,None,1000,11,4494528,325,283.285
J,9,4212522,silence.wav,None,1000,11,4496528,324,285.285
J,9,4212522,vowelstep7.wav,None,1000,11,4498528,322,287.285
J,9,4212522,sinestep3.wav,None,1000,11,4500528,333,289.285
J,9,4212522,vowelstep5_catch.wav,1,192,11,4502529,332,291.285
J,9,4212522,silence.wav,None,1000,11,4504529,1147,293.285
J,9,4212522,sinestep7.wav,None,1000,11,4506528,344,295.285
J,9,4212522,vowelstep1.wav,None,1000,11,4508528,342,297.285
J,9,4212522,silence.wav,None,1000,11,4510528,324,299.285
J,9,4212522,sinestep1.wav,None,1000,11,4512528,353,301.285
J,9,4212522,sinestep5.wav,None,1000,11,4514528,330,303.285
J,9,4212522,vowelstep5.wav,None,1000,11,4516528,328,305.285
J,9,4212522,vowelstep3.wav,None,1000,11,4518528,334,307.285
J,9,4212522,sinestep7.wav,None,1000,11,4520529,344,309.285
J,9,4212522,vowelstep7.wav,None,1000,11,4522529,314,311.285
J,9,4212522,vowelstep3_catch.wav,1,71,11,4524529,323,313.285
J,9,4212522,vowelstep1_catch.wav,1,125,11,4526529,1250,315.285
J,9,4212522,sinestep3.wav,None,1000,11,4528529,1204,317.285
J,9,4212522,sinestep1.wav,None,1000,11,4530528,332,319.285