block,count_main_sequence,first_trial_timestamp,fname,response_catch_response,response_time_catch_response,subject_nr,time_stimulus,time_to_pad,timing
P,NA,162447,vowelstep1_catch.wav,None,1000,8,162454,0,
P,NA,162447,sinestep7_catch.wav,None,1000,8,164454,437,
P,NA,162447,vowelstep5_catch.wav,None,1000,8,166454,449,
P,NA,162447,sinestep7.wav,None,1000,8,168454,449,
P,NA,162447,sinestep7.wav,None,1000,8,170454,459,
P,NA,162447,sinestep3.wav,None,1000,8,172454,429,
P,NA,162447,sinestep1.wav,None,1000,8,174455,439,
P,NA,162447,vowelstep7.wav,None,1000,8,176454,438,
P,NA,162447,vowelstep3.wav,None,1000,8,178454,438,
P,NA,162447,silence.wav,None,1000,8,180454,448,
P,NA,162447,sinestep1.wav,None,1000,8,182454,448,
P,NA,162447,vowelstep1.wav,None,1000,8,184454,450,
P,NA,162447,sinestep5.wav,None,1000,8,186454,438,
P,NA,162447,sinestep1.wav,None,1000,8,188454,438,
P,NA,162447,sinestep1.wav,None,1000,8,190454,438,
P,NA,162447,vowelstep1.wav,None,1000,8,192455,437,
P,NA,162447,silence.wav,None,1000,8,194455,447,
P,NA,162447,silence.wav,None,1000,8,196455,448,
P,NA,162447,silence.wav,None,1000,8,198455,458,
P,NA,162447,sinestep3_catch.wav,2,452,8,200454,458,
P,NA,162447,vowelstep7.wav,None,1000,8,202454,984,
P,NA,162447,silence.wav,None,1000,8,204454,437,
P,NA,162447,vowelstep7.wav,None,1000,8,206454,437,
P,NA,162447,vowelstep3.wav,None,1000,8,208455,447,
P,NA,162447,silence.wav,None,1000,8,210455,446,
P,NA,162447,vowelstep1.wav,None,1000,8,212455,456,
P,NA,162447,sinestep3.wav,None,1000,8,214455,427,
P,NA,162447,vowelstep1.wav,None,1000,8,216455,438,
P,NA,162447,silence.wav,None,1000,8,218455,437,
P,NA,162447,sinestep7.wav,None,1000,8,220455,436,
P,NA,162447,sinestep5_catch.wav,2,312,8,222455,447,
P,NA,162447,silence.wav,None,1000,8,224454,1134,
P,NA,162447,sinestep7.wav,None,1000,8,226455,446,
P,NA,162447,sinestep5.wav,None,1000,8,228455,455,
P,NA,162447,sinestep3.wav,None,1000,8,230455,435,
P,NA,162447,sinestep1_catch.wav,2,245,8,232455,435,
P,NA,162447,vowelstep3_catch.wav,None,1000,8,234455,1189,
P,NA,162447,vowelstep5_catch.wav,None,1000,8,236455,445,
P,NA,162447,vowelstep7.wav,None,1000,8,238455,445,
P,NA,162447,silence.wav,None,1000,8,240455,445,
P,NA,162447,vowelstep7_catch.wav,2,415,8,242455,425,
P,NA,162447,vowelstep3.wav,None,1000,8,244456,1020,
P,NA,162447,silence.wav,None,1000,8,246456,434,
P,NA,162447,sinestep7_catch.wav,2,287,8,248455,435,
P,NA,162447,sinestep7.wav,None,1000,8,250455,1157,
P,NA,162447,vowelstep5.wav,None,1000,8,252455,444,
P,NA,162447,vowelstep3.wav,None,1000,8,254455,445,
P,NA,162447,sinestep5.wav,None,1000,8,256455,445,
P,NA,162447,sinestep5_catch.wav,2,269,8,258455,435,
P,NA,162447,sinestep3.wav,None,1000,8,260455,1185,
P,NA,162447,silence.wav,None,1000,8,262456,463,
P,NA,162447,vowelstep7.wav,None,1000,8,264456,443,
P,NA,162447,sinestep3_catch.wav,2,231,8,266456,443,
P,NA,162447,vowelstep5.wav,None,1000,8,268456,1211,
P,NA,162447,silence.wav,None,1000,8,270456,453,
P,NA,162447,sinestep1.wav,None,1000,8,272455,453,
P,NA,162447,vowelstep1.wav,None,1000,8,274455,453,
P,NA,162447,silence.wav,None,1000,8,276455,463,
P,NA,162447,silence.wav,None,1000,8,278456,443,
P,NA,162447,silence.wav,None,1000,8,280456,442,
P,NA,162447,sinestep1_catch.wav,2,239,8,282456,443,
P,NA,162447,sinestep1.wav,None,1000,8,284456,1212,
P,NA,162447,silence.wav,None,1000,8,286456,452,
P,NA,162447,vowelstep1_catch.wav,2,435,8,288456,452,
P,NA,162447,vowelstep5.wav,None,1000,8,290456,1028,
P,NA,162447,sinestep5.wav,None,1000,8,292456,462,
P,NA,162447,vowelstep3.wav,None,1000,8,294456,443,
P,NA,162447,silence.wav,None,1000,8,296456,442,
P,NA,162447,silence.wav,None,1000,8,298456,441,
P,NA,162447,sinestep7.wav,None,1000,8,300456,451,
P,NA,162447,vowelstep5.wav,None,1000,8,302456,451,
P,NA,162447,silence.wav,None,1000,8,304456,461,
P,NA,162447,vowelstep3_catch.wav,2,343,8,306456,431,
P,NA,162447,silence.wav,None,1000,8,308456,1098,
P,NA,162447,vowelstep5.wav,None,1000,8,310456,441,
P,NA,162447,vowelstep5_catch.wav,2,369,8,312456,451,
P,NA,162447,vowelstep7_catch.wav,2,430,8,314457,1081,
P,NA,162447,sinestep3.wav,None,1000,8,316457,1019,
P,NA,162447,vowelstep5.wav,None,1000,8,318457,451,
P,NA,162447,vowelstep3.wav,None,1000,8,320456,440,
P,NA,162447,silence.wav,None,1000,8,322456,441,
P,NA,162447,sinestep3.wav,None,1000,8,324456,441,
P,NA,162447,silence.wav,None,1000,8,326456,441,
P,NA,162447,sinestep7_catch.wav,2,234,8,328456,450,
P,NA,162447,sinestep5_catch.wav,2,229,8,330456,1215,
P,NA,162447,sinestep5.wav,None,1000,8,332457,1219,
P,NA,162447,sinestep5.wav,None,1000,8,334457,429,
P,NA,162447,vowelstep7.wav,None,1000,8,336457,439,
P,NA,162447,sinestep3_catch.wav,2,517,8,338457,439,
P,NA,162447,vowelstep1.wav,None,1000,8,340457,922,
F,0,740448,sinestep1.wav,None,1000,8,740463,0,1.285
F,0,740448,vowelstep5.wav,None,1000,8,742463,342,3.285
F,0,740448,vowelstep3.wav,None,1000,8,744463,325,5.285
F,0,740448,sinestep5.wav,None,1000,8,746463,334,7.285
F,0,740448,vowelstep7.wav,None,1000,8,748463,335,9.285
F,0,740448,silence.wav,None,1000,8,750464,335,11.285
F,0,740448,vowelstep5.wav,None,1000,8,752464,344,13.285
F,0,740448,sinestep3.wav,None,1000,8,754464,314,15.285
F,0,740448,sinestep3.wav,None,1000,8,756463,344,17.285
F,0,740448,silence.wav,None,1000,8,758463,344,19.285
F,0,740448,vowelstep7.wav,None,1000,8,760463,334,21.285
F,0,740448,vowelstep7.wav,None,1000,8,762463,334,23.285
F,0,740448,vowelstep1_catch.wav,2,173,8,764463,334,25.285
F,0,740448,vowelstep3_catch.wav,2,120,8,766463,1161,27.285
F,0,740448,vowelstep1.wav,None,1000,8,768464,1223,29.285
F,0,740448,sinestep5.wav,None,1000,8,770464,344,31.285
F,0,740448,sinestep5.wav,None,1000,8,772464,323,33.285
F,0,740448,vowelstep7.wav,None,1000,8,774464,323,35.285
F,0,740448,sinestep3.wav,None,1000,8,776464,334,37.285
F,0,740448,sinestep7.wav,None,1000,8,778464,333,39.285
F,0,740448,vowelstep5_catch.wav,2,155,8,780463,343,41.285
F,0,740448,sinestep1.wav,None,1000,8,782463,1041,43.285
F,0,740448,vowelstep7_catch.wav,2,232,8,784463,344,45.285
F,0,740448,vowelstep3.wav,None,1000,8,786464,1111,47.285
F,0,740448,sinestep1.wav,None,1000,8,788464,332,49.285
F,0,740448,sinestep7.wav,None,1000,8,790464,332,51.285
F,0,740448,silence.wav,None,1000,8,792464,332,53.285
F,0,740448,sinestep7.wav,None,1000,8,794464,332,55.285
F,0,740448,vowelstep1.wav,None,1000,8,796464,341,57.285
F,0,740448,vowelstep3.wav,None,1000,8,798464,339,59.285
F,0,740448,vowelstep7_catch.wav,2,183,8,800464,352,61.285
F,0,740448,sinestep5.wav,None,1000,8,802464,1138,63.285
F,0,740448,sinestep3.wav,None,1000,8,804464,331,65.285
F,0,740448,vowelstep3.wav,None,1000,8,806464,332,67.285
F,0,740448,silence.wav,None,1000,8,808464,341,69.285
F,0,740448,vowelstep1.wav,None,1000,8,810464,342,71.285
F,0,740448,vowelstep1.wav,None,1000,8,812464,341,73.285
F,0,740448,vowelstep5_catch.wav,2,61,8,814464,335,75.285
F,0,740448,silence.wav,None,1000,8,816464,1290,77.285
F,0,740448,vowelstep3.wav,None,1000,8,818464,331,79.285
F,0,740448,vowelstep5.wav,None,1000,8,820465,330,81.285
F,0,740448,vowelstep3_catch.wav,2,220,8,822465,330,83.285
F,0,740448,vowelstep3.wav,None,1000,8,824465,1120,85.285
F,0,740448,sinestep7.wav,None,1000,8,826465,340,87.285
F,0,740448,vowelstep1.wav,None,1000,8,828465,340,89.285
F,0,740448,sinestep1.wav,None,1000,8,830464,350,91.285
F,0,740448,vowelstep1_catch.wav,2,54,8,832464,330,93.285
F,0,740448,vowelstep5.wav,None,1000,8,834464,1276,95.285
F,0,740448,sinestep7.wav,None,1000,8,836464,329,97.285
F,0,740448,vowelstep7.wav,None,1000,8,838465,340,99.285
F,0,740448,vowelstep3.wav,None,1000,8,840465,340,101.285
F,0,740448,sinestep3.wav,None,1000,8,842465,339,103.285
F,0,740448,silence.wav,None,1000,8,844465,350,105.285
F,0,740448,sinestep1.wav,None,1000,8,846465,319,107.285
F,0,740448,sinestep1.wav,None,1000,8,848465,329,109.285
F,0,740448,silence.wav,None,1000,8,850465,329,111.285
F,0,740448,sinestep7.wav,None,1000,8,852465,338,113.285
F,0,740448,vowelstep3.wav,None,1000,8,854464,339,115.285
F,0,740448,sinestep3.wav,None,1000,8,856465,339,117.285
F,0,740448,vowelstep3.wav,None,1000,8,858465,348,119.285
F,0,740448,vowelstep7.wav,None,1000,8,860465,328,121.285
F,0,740448,vowelstep7.wav,None,1000,8,862465,328,123.285
F,0,740448,vowelstep5.wav,None,1000,8,864465,328,125.285
F,0,740448,sinestep1.wav,None,1000,8,866465,338,127.285
F,0,740448,silence.wav,None,1000,8,868465,338,129.285
F,0,740448,sinestep1.wav,None,1000,8,870465,338,131.285
F,0,740448,sinestep3.wav,None,1000,8,872465,347,133.285
F,0,740448,sinestep1_catch.wav,2,62,8,874466,326,135.285
F,0,740448,sinestep3.wav,None,1000,8,876465,1265,137.285
F,0,740448,sinestep3.wav,None,1000,8,878465,326,139.285
F,0,740448,silence.wav,None,1000,8,880465,337,141.285
F,0,740448,silence.wav,None,1000,8,882465,337,143.285
F,0,740448,sinestep7.wav,None,1000,8,884465,337,145.285
F,0,740448,sinestep5.wav,None,1000,8,886465,337,147.285
F,0,740448,vowelstep1.wav,None,1000,8,888465,326,149.285
F,0,740448,sinestep7.wav,None,1000,8,890466,326,151.285
F,0,740448,silence.wav,None,1000,8,892466,326,153.285
F,0,740448,sinestep3_catch.wav,2,142,8,894466,335,155.285
F,0,740448,vowelstep5.wav,None,1000,8,896466,1193,157.285
F,0,740448,sinestep3.wav,None,1000,8,898466,336,159.285
F,0,740448,vowelstep5.wav,None,1000,8,900465,345,161.285
F,0,740448,sinestep3.wav,None,1000,8,902465,326,163.285
F,0,740448,vowelstep3.wav,None,1000,8,904465,321,165.285
F,0,740448,vowelstep1.wav,None,1000,8,906465,327,167.285
F,0,740448,sinestep5.wav,None,1000,8,908466,326,169.285
F,0,740448,vowelstep5.wav,None,1000,8,910466,334,171.285
F,0,740448,vowelstep1.wav,None,1000,8,912466,335,173.285
F,0,740448,vowelstep1.wav,None,1000,8,914466,336,175.285
F,0,740448,sinestep7.wav,None,1000,8,916466,314,177.285
F,0,740448,vowelstep1.wav,None,1000,8,918466,325,179.285
F,0,740448,sinestep5.wav,None,1000,8,920466,324,181.285
F,0,740448,vowelstep7.wav,None,1000,8,922466,331,183.285
F,0,740448,sinestep1.wav,None,1000,8,924466,335,185.285
F,0,740448,vowelstep7.wav,None,1000,8,926466,333,187.285
F,0,740448,sinestep5.wav,None,1000,8,928466,334,189.285
F,0,740448,vowelstep5.wav,None,1000,8,930466,323,191.285
F,0,740448,silence.wav,None,1000,8,932466,324,193.285
F,0,740448,sinestep7.wav,None,1000,8,934466,324,195.285
F,0,740448,vowelstep5.wav,None,1000,8,936466,323,197.285
F,0,740448,vowelstep7.wav,None,1000,8,938466,334,199.285
F,0,740448,silence.wav,None,1000,8,940466,334,201.285
F,0,740448,vowelstep1.wav,None,1000,8,942466,344,203.285
F,0,740448,vowelstep7.wav,None,1000,8,944467,313,205.285
F,0,740448,vowelstep7.wav,None,1000,8,946467,322,207.285
F,0,740448,vowelstep3.wav,None,1000,8,948467,323,209.285
F,0,740448,vowelstep3.wav,None,1000,8,950466,324,211.285
F,0,740448,silence.wav,None,1000,8,952466,334,213.285
F,0,740448,sinestep7.wav,None,1000,8,954466,333,215.285
F,0,740448,sinestep1.wav,None,1000,8,956466,333,217.285
F,0,740448,silence.wav,None,1000,8,958466,343,219.285
F,0,740448,vowelstep1.wav,None,1000,8,960467,322,221.285
F,0,740448,sinestep5_catch.wav,2,167,8,962467,321,223.285
F,0,740448,sinestep1.wav,None,1000,8,964467,1154,225.285
F,0,740448,silence.wav,None,1000,8,966467,332,227.285
F,0,740448,sinestep7.wav,None,1000,8,968467,332,229.285
F,0,740448,sinestep7.wav,None,1000,8,970467,331,231.285
F,0,740448,silence.wav,None,1000,8,972467,341,233.285
F,0,740448,vowelstep5.wav,None,1000,8,974466,322,235.285
F,0,740448,sinestep7.wav,None,1000,8,976466,341,237.285
F,0,740448,sinestep5.wav,None,1000,8,978467,322,239.285
F,0,740448,sinestep5.wav,None,1000,8,980467,330,241.285
F,0,740448,silence.wav,None,1000,8,982467,331,243.285
F,0,740448,vowelstep3.wav,None,1000,8,984467,330,245.285
F,0,740448,vowelstep3.wav,None,1000,8,986467,340,247.285
F,0,740448,silence.wav,None,1000,8,988467,341,249.285
F,0,740448,sinestep1.wav,None,1000,8,990467,341,251.285
F,0,740448,sinestep1.wav,None,1000,8,992467,341,253.285
F,0,740448,vowelstep5.wav,None,1000,8,994467,330,255.285
F,0,740448,silence.wav,None,1000,8,996468,330,257.285
F,0,740448,sinestep5.wav,None,1000,8,998467,329,259.285
F,0,740448,sinestep5.wav,None,1000,8,1000467,329,261.285
F,0,740448,sinestep5.wav,None,1000,8,1002467,336,263.285
F,0,740448,sinestep7.wav,None,1000,8,1004467,340,265.285
F,0,740448,sinestep7_catch.wav,2,179,8,1006467,349,267.285
F,0,740448,sinestep7_catch.wav,2,229,8,1008467,1140,269.285
F,0,740448,sinestep1.wav,None,1000,8,1010467,1100,271.285
F,0,740448,vowelstep7.wav,None,1000,8,1012451,329,273.285
F,0,740448,sinestep3.wav,None,1000,8,1014468,359,275.285
F,0,740448,sinestep3.wav,None,1000,8,1016468,339,277.285
F,0,740448,silence.wav,None,1000,8,1018468,338,279.285
F,0,740448,sinestep5_catch.wav,2,177,8,1020468,348,281.285
F,0,740448,sinestep5.wav,None,1000,8,1022451,1141,283.285
F,0,740448,silence.wav,None,1000,8,1024451,349,285.285
F,0,740448,vowelstep5.wav,None,1000,8,1026467,349,287.285
F,0,740448,silence.wav,None,1000,8,1028467,338,289.285
F,0,740448,sinestep1.wav,None,1000,8,1030451,338,291.285
F,0,740448,sinestep3.wav,None,1000,8,1032468,337,293.285
F,0,740448,vowelstep3.wav,None,1000,8,1034468,348,295.285
F,0,740448,silence.wav,None,1000,8,1036468,317,297.285
F,0,740448,sinestep5.wav,None,1000,8,1038451,327,299.285
F,0,740448,vowelstep5.wav,None,1000,8,1040451,348,301.285
F,0,740448,vowelstep5.wav,None,1000,8,1042451,338,303.285
F,0,740448,vowelstep1.wav,None,1000,8,1044468,337,305.285
F,0,740448,sinestep3.wav,None,1000,8,1046467,337,307.285
F,0,740448,silence.wav,None,1000,8,1048452,347,309.285
F,0,740448,sinestep3_catch.wav,2,171,8,1050452,347,311.285
F,0,740448,vowelstep1.wav,None,1000,8,1052468,1174,313.285
F,0,740448,vowelstep7.wav,None,1000,8,1054451,327,315.285
F,0,740448,vowelstep7.wav,None,1000,8,1056451,356,317.285
F,0,740448,vowelstep1.wav,None,1000,8,1058451,356,319.285
E,1,1117379,vowelstep7.wav,None,1000,8,1117386,0,1.285
E,1,1117379,sinestep3.wav,None,1000,8,1119386,333,3.285
E,1,1117379,sinestep5.wav,None,1000,8,1121386,344,5.285
E,1,1117379,sinestep1.wav,None,1000,8,1123386,344,7.285
E,1,1117379,sinestep5.wav,None,1000,8,1125386,343,9.285
E,1,1117379,silence.wav,None,1000,8,1127386,333,11.285
E,1,1117379,vowelstep1.wav,None,1000,8,1129386,333,13.285
E,1,1117379,vowelstep7.wav,None,1000,8,1131386,333,15.285
E,1,1117379,vowelstep1.wav,None,1000,8,1133386,333,17.285
E,1,1117379,sinestep1_catch.wav,2,104,8,1135386,343,19.285
E,1,1117379,vowelstep5.wav,None,1000,8,1137386,1237,21.285
E,1,1117379,sinestep5.wav,None,1000,8,1139386,342,23.285
E,1,1117379,vowelstep5.wav,None,1000,8,1141386,352,25.285
E,1,1117379,vowelstep3.wav,None,1000,8,1143386,352,27.285
E,1,1117379,sinestep1.wav,None,1000,8,1145386,352,29.285
E,1,1117379,vowelstep5.wav,None,1000,8,1147386,362,31.285
E,1,1117379,silence.wav,None,1000,8,1149386,342,33.285
E,1,1117379,silence.wav,None,1000,8,1151386,342,35.285
E,1,1117379,sinestep3.wav,None,1000,8,1153387,342,37.285
E,1,1117379,sinestep3.wav,None,1000,8,1155387,351,39.285
E,1,1117379,sinestep3.wav,None,1000,8,1157387,352,41.285
E,1,1117379,sinestep1.wav,None,1000,8,1159386,331,43.285
E,1,1117379,vowelstep1.wav,None,1000,8,1161386,361,45.285
E,1,1117379,sinestep1.wav,None,1000,8,1163386,332,47.285
E,1,1117379,vowelstep7.wav,None,1000,8,1165386,341,49.285
E,1,1117379,vowelstep5.wav,None,1000,8,1167386,341,51.285
E,1,1117379,sinestep7.wav,None,1000,8,1169386,341,53.285
E,1,1117379,sinestep1.wav,None,1000,8,1171387,350,55.285
E,1,1117379,vowelstep5.wav,None,1000,8,1173387,350,57.285
E,1,1117379,sinestep3.wav,None,1000,8,1175387,360,59.285
E,1,1117379,vowelstep1.wav,None,1000,8,1177387,330,61.285
E,1,1117379,vowelstep5.wav,None,1000,8,1179387,340,63.285
E,1,1117379,vowelstep3.wav,None,1000,8,1181387,340,65.285
E,1,1117379,sinestep1.wav,None,1000,8,1183386,350,67.285
E,1,1117379,vowelstep3.wav,None,1000,8,1185386,350,69.285
E,1,1117379,silence.wav,None,1000,8,1187387,350,71.285
E,1,1117379,vowelstep3.wav,None,1000,8,1189387,349,73.285
E,1,1117379,sinestep3_catch.wav,2,207,8,1191387,359,75.285
E,1,1117379,sinestep3.wav,None,1000,8,1193387,1132,77.285
E,1,1117379,vowelstep3.wav,None,1000,8,1195387,340,79.285
E,1,1117379,vowelstep7.wav,None,1000,8,1197387,339,81.285
E,1,1117379,silence.wav,None,1000,8,1199387,348,83.285
E,1,1117379,sinestep3.wav,None,1000,8,1201387,350,85.285
E,1,1117379,silence.wav,None,1000,8,1203387,359,87.285
E,1,1117379,sinestep1.wav,None,1000,8,1205388,328,89.285
E,1,1117379,sinestep5_catch.wav,2,112,8,1207387,338,91.285
E,1,1117379,vowelstep3.wav,None,1000,8,1209387,971,93.285
E,1,1117379,sinestep5.wav,None,1000,8,1211387,347,95.285
E,1,1117379,vowelstep7.wav,None,1000,8,1213387,348,97.285
E,1,1117379,sinestep1.wav,None,1000,8,1215387,346,99.285
E,1,1117379,sinestep5.wav,None,1000,8,1217387,346,101.285
E,1,1117379,sinestep5.wav,None,1000,8,1219387,338,103.285
E,1,1117379,vowelstep7.wav,None,1000,8,1221387,327,105.285
E,1,1117379,vowelstep3.wav,None,1000,8,1223388,338,107.285
E,1,1117379,vowelstep7.wav,None,1000,8,1225388,338,109.285
E,1,1117379,sinestep5.wav,None,1000,8,1227388,347,111.285
E,1,1117379,vowelstep3.wav,None,1000,8,1229388,346,113.285
E,1,1117379,vowelstep7.wav,None,1000,8,1231387,346,115.285
E,1,1117379,sinestep3.wav,None,1000,8,1233387,326,117.285
E,1,1117379,vowelstep7.wav,None,1000,8,1235387,336,119.285
E,1,1117379,silence.wav,None,1000,8,1237387,338,121.285
E,1,1117379,silence.wav,None,1000,8,1239387,337,123.285
E,1,1117379,sinestep7.wav,None,1000,8,1241388,346,125.285
E,1,1117379,sinestep7_catch.wav,2,66,8,1243388,346,127.285
E,1,1117379,sinestep7.wav,None,1000,8,1245388,1278,129.285
E,1,1117379,silence.wav,None,1000,8,1247388,326,131.285
E,1,1117379,sinestep7_catch.wav,2,60,8,1249388,335,133.285
E,1,1117379,sinestep7.wav,None,1000,8,1251388,1275,135.285
E,1,1117379,sinestep5_catch.wav,2,43,8,1253388,335,137.285
E,1,1117379,sinestep1.wav,None,1000,8,1255387,1302,139.285
E,1,1117379,sinestep1.wav,None,1000,8,1257388,346,141.285
E,1,1117379,sinestep1.wav,None,1000,8,1259388,346,143.285
E,1,1117379,sinestep3.wav,None,1000,8,1261388,355,145.285
E,1,1117379,vowelstep5.wav,None,1000,8,1263388,335,147.285
E,1,1117379,silence.wav,None,1000,8,1265388,335,149.285
E,1,1117379,sinestep3_catch.wav,2,362,8,1267388,335,151.285
E,1,1117379,silence.wav,None,1000,8,1269388,982,153.285
E,1,1117379,sinestep7.wav,None,1000,8,1271388,346,155.285
E,1,1117379,sinestep5.wav,None,1000,8,1273388,346,157.285
E,1,1117379,silence.wav,None,1000,8,1275389,325,159.285
E,1,1117379,vowelstep5.wav,None,1000,8,1277389,333,161.285
E,1,1117379,vowelstep1.wav,None,1000,8,1279389,334,163.285
E,1,1117379,vowelstep3.wav,None,1000,8,1281388,333,165.285
E,1,1117379,sinestep5.wav,None,1000,8,1283388,344,167.285
E,1,1117379,sinestep7.wav,None,1000,8,1285388,343,169.285
E,1,1117379,vowelstep1.wav,None,1000,8,1287388,344,171.285
E,1,1117379,vowelstep7.wav,None,1000,8,1289388,354,173.285
E,1,1117379,sinestep3.wav,None,1000,8,1291388,333,175.285
E,1,1117379,silence.wav,None,1000,8,1293389,334,177.285
E,1,1117379,sinestep1_catch.wav,2,94,8,1295389,333,179.285
E,1,1117379,sinestep7.wav,None,1000,8,1297389,1246,181.285
E,1,1117379,vowelstep1.wav,None,1000,8,1299389,343,183.285
E,1,1117379,sinestep5.wav,None,1000,8,1301389,342,185.285
E,1,1117379,sinestep5.wav,None,1000,8,1303389,352,187.285
E,1,1117379,vowelstep1.wav,None,1000,8,1305388,334,189.285
E,1,1117379,sinestep7.wav,None,1000,8,1307388,333,191.285
E,1,1117379,sinestep3.wav,None,1000,8,1309388,332,193.285
E,1,1117379,sinestep7.wav,None,1000,8,1311389,332,195.285
E,1,1117379,silence.wav,None,1000,8,1313389,341,197.285
E,1,1117379,vowelstep1.wav,None,1000,8,1315389,342,199.285
E,1,1117379,sinestep1.wav,None,1000,8,1317389,352,201.285
E,1,1117379,vowelstep1.wav,None,1000,8,1319389,322,203.285
E,1,1117379,vowelstep1.wav,None,1000,8,1321389,332,205.285
E,1,1117379,vowelstep1_catch.wav,2,248,8,1323389,331,207.285
E,1,1117379,vowelstep1.wav,None,1000,8,1325389,1093,209.285
E,1,1117379,vowelstep1.wav,None,1000,8,1327389,341,211.285
E,1,1117379,silence.wav,None,1000,8,1329389,337,213.285
E,1,1117379,sinestep7.wav,None,1000,8,1331389,340,215.285
E,1,1117379,vowelstep7.wav,None,1000,8,1333389,350,217.285
E,1,1117379,vowelstep3_catch.wav,2,236,8,1335389,332,219.285
E,1,1117379,vowelstep5.wav,None,1000,8,1337389,1095,221.285
E,1,1117379,sinestep3.wav,None,1000,8,1339389,330,223.285
E,1,1117379,silence.wav,None,1000,8,1341389,340,225.285
E,1,1117379,sinestep1.wav,None,1000,8,1343389,341,227.285
E,1,1117379,sinestep5.wav,None,1000,8,1345390,340,229.285
E,1,1117379,sinestep5.wav,None,1000,8,1347390,319,231.285
E,1,1117379,sinestep3.wav,None,1000,8,1349390,329,233.285
E,1,1117379,sinestep5.wav,None,1000,8,1351390,330,235.285
E,1,1117379,vowelstep3.wav,None,1000,8,1353389,329,237.285
E,1,1117379,sinestep7.wav,None,1000,8,1355389,340,239.285
E,1,1117379,sinestep7.wav,None,1000,8,1357389,339,241.285
E,1,1117379,silence.wav,None,1000,8,1359389,339,243.285
E,1,1117379,sinestep3.wav,None,1000,8,1361389,349,245.285
E,1,1117379,sinestep3.wav,None,1000,8,1363390,327,247.285
E,1,1117379,vowelstep3.wav,None,1000,8,1365390,329,249.285
E,1,1117379,silence.wav,None,1000,8,1367390,328,251.285
E,1,1117379,sinestep7.wav,None,1000,8,1369390,339,253.285
E,1,1117379,silence.wav,None,1000,8,1371390,339,255.285
E,1,1117379,vowelstep7.wav,None,1000,8,1373390,348,257.285
E,1,1117379,vowelstep3.wav,None,1000,8,1375390,348,259.285
E,1,1117379,silence.wav,None,1000,8,1377389,328,261.285
E,1,1117379,vowelstep3.wav,None,1000,8,1379389,328,263.285
E,1,1117379,vowelstep1.wav,None,1000,8,1381390,357,265.285
E,1,1117379,vowelstep5.wav,None,1000,8,1383390,337,267.285
E,1,1117379,silence.wav,None,1000,8,1385390,337,269.285
E,1,1117379,vowelstep3.wav,None,1000,8,1387390,338,271.285
E,1,1117379,sinestep1.wav,None,1000,8,1389390,348,273.285
E,1,1117379,vowelstep5_catch.wav,2,382,8,1391390,327,275.285
E,1,1117379,sinestep7.wav,None,1000,8,1393390,946,277.285
E,1,1117379,sinestep7.wav,None,1000,8,1395390,357,279.285
E,1,1117379,vowelstep7.wav,None,1000,8,1397391,336,281.285
E,1,1117379,silence.wav,None,1000,8,1399391,336,283.285
E,1,1117379,sinestep5.wav,None,1000,8,1401390,336,285.285
E,1,1117379,silence.wav,None,1000,8,1403390,336,287.285
E,1,1117379,silence.wav,None,1000,8,1405390,346,289.285
E,1,1117379,vowelstep5.wav,None,1000,8,1407390,346,291.285
E,1,1117379,vowelstep5.wav,None,1000,8,1409390,326,293.285
E,1,1117379,silence.wav,None,1000,8,1411390,328,295.285
E,1,1117379,vowelstep5.wav,None,1000,8,1413390,336,297.285
E,1,1117379,vowelstep7_catch.wav,2,198,8,1415391,330,299.285
E,1,1117379,vowelstep7_catch.wav,2,140,8,1417391,1146,301.285
E,1,1117379,vowelstep5.wav,None,1000,8,1419391,1196,303.285
E,1,1117379,sinestep1.wav,None,1000,8,1421391,345,305.285
E,1,1117379,vowelstep3.wav,None,1000,8,1423391,345,307.285
E,1,1117379,vowelstep5_catch.wav,2,221,8,1425390,335,309.285
E,1,1117379,vowelstep7.wav,None,1000,8,1427390,1114,311.285
E,1,1117379,vowelstep5.wav,None,1000,8,1429390,334,313.285
E,1,1117379,vowelstep7.wav,None,1000,8,1431390,335,315.285
E,1,1117379,vowelstep1.wav,None,1000,8,1433391,347,317.285
E,1,1117379,vowelstep3_catch.wav,2,217,8,1435391,345,319.285
I,2,1493731,vowelstep7.wav,None,1000,8,1493742,0,1.285
I,2,1493731,sinestep1_catch.wav,2,188,8,1495742,332,3.285
I,2,1493731,sinestep3.wav,None,1000,8,1497741,1144,5.285
I,2,1493731,silence.wav,None,1000,8,1499741,333,7.285
I,2,1493731,vowelstep7.wav,None,1000,8,1501741,343,9.285
I,2,1493731,sinestep3_catch.wav,2,63,8,1503742,342,11.285
I,2,1493731,vowelstep3.wav,None,1000,8,1505742,1279,13.285
I,2,1493731,vowelstep3.wav,None,1000,8,1507742,342,15.285
I,2,1493731,silence.wav,None,1000,8,1509742,322,17.285
I,2,1493731,vowelstep1.wav,None,1000,8,1511742,332,19.285
I,2,1493731,vowelstep5.wav,None,1000,8,1513742,332,21.285
I,2,1493731,vowelstep7.wav,None,1000,8,1515742,332,23.285
I,2,1493731,sinestep1.wav,None,1000,8,1517742,342,25.285
I,2,1493731,vowelstep1.wav,None,1000,8,1519743,343,27.285
I,2,1493731,sinestep5_catch.wav,2,172,8,1521742,342,29.285
I,2,1493731,sinestep5.wav,None,1000,8,1523742,1180,31.285
I,2,1493731,vowelstep1.wav,None,1000,8,1525742,332,33.285
I,2,1493731,sinestep7.wav,None,1000,8,1527742,332,35.285
I,2,1493731,vowelstep3.wav,None,1000,8,1529742,332,37.285
I,2,1493731,vowelstep1.wav,None,1000,8,1531742,342,39.285
I,2,1493731,vowelstep1.wav,None,1000,8,1533742,342,41.285
I,2,1493731,sinestep3.wav,None,1000,8,1535742,342,43.285
I,2,1493731,sinestep5.wav,None,1000,8,1537743,323,45.285
I,2,1493731,sinestep5.wav,None,1000,8,1539743,332,47.285
I,2,1493731,vowelstep3.wav,None,1000,8,1541743,331,49.285
I,2,1493731,silence.wav,None,1000,8,1543743,341,51.285
I,2,1493731,sinestep7_catch.wav,2,154,8,1545742,341,53.285
I,2,1493731,silence.wav,None,1000,8,1547742,1186,55.285
I,2,1493731,sinestep1.wav,None,1000,8,1549742,342,57.285
I,2,1493731,vowelstep1.wav,None,1000,8,1551742,351,59.285
I,2,1493731,sinestep1.wav,None,1000,8,1553742,332,61.285
I,2,1493731,sinestep1.wav,None,1000,8,1555743,331,63.285
I,2,1493731,vowelstep7.wav,None,1000,8,1557743,329,65.285
I,2,1493731,sinestep5.wav,None,1000,8,1559743,341,67.285
I,2,1493731,sinestep5_catch.wav,2,79,8,1561743,340,69.285
I,2,1493731,vowelstep7.wav,None,1000,8,1563743,1260,71.285
I,2,1493731,vowelstep5.wav,None,1000,8,1565743,350,73.285
I,2,1493731,sinestep3.wav,None,1000,8,1567743,330,75.285
I,2,1493731,vowelstep1.wav,None,1000,8,1569742,330,77.285
I,2,1493731,sinestep3.wav,None,1000,8,1571742,330,79.285
I,2,1493731,sinestep5.wav,None,1000,8,1573743,339,81.285
I,2,1493731,sinestep5.wav,None,1000,8,1575743,339,83.285
I,2,1493731,vowelstep5.wav,None,1000,8,1577743,339,85.285
I,2,1493731,vowelstep7.wav,None,1000,8,1579743,319,87.285
I,2,1493731,sinestep3.wav,None,1000,8,1581743,329,89.285
I,2,1493731,vowelstep3.wav,None,1000,8,1583743,329,91.285
I,2,1493731,sinestep3.wav,None,1000,8,1585743,329,93.285
I,2,1493731,vowelstep5.wav,None,1000,8,1587743,339,95.285
I,2,1493731,sinestep7.wav,None,1000,8,1589744,338,97.285
I,2,1493731,sinestep3_catch.wav,2,221,8,1591744,338,99.285
I,2,1493731,sinestep1_catch.wav,2,183,8,1593743,1116,101.285
I,2,1493731,vowelstep3.wav,None,1000,8,1595743,1145,103.285
I,2,1493731,vowelstep3.wav,None,1000,8,1597743,326,105.285
I,2,1493731,vowelstep5.wav,None,1000,8,1599743,328,107.285
I,2,1493731,sinestep5.wav,None,1000,8,1601743,328,109.285
I,2,1493731,vowelstep5.wav,None,1000,8,1603743,338,111.285
I,2,1493731,vowelstep5.wav,None,1000,8,1605743,336,113.285
I,2,1493731,vowelstep1.wav,None,1000,8,1607744,347,115.285
I,2,1493731,vowelstep1_catch.wav,2,172,8,1609744,327,117.285
I,2,1493731,sinestep7.wav,None,1000,8,1611744,1154,119.285
I,2,1493731,vowelstep3.wav,None,1000,8,1613744,326,121.285
I,2,1493731,sinestep7.wav,None,1000,8,1615744,327,123.285
I,2,1493731,sinestep7.wav,None,1000,8,1617744,336,125.285
I,2,1493731,vowelstep7.wav,None,1000,8,1619743,337,127.285
I,2,1493731,vowelstep3.wav,None,1000,8,1621743,346,129.285
I,2,1493731,sinestep5.wav,None,1000,8,1623743,347,131.285
I,2,1493731,sinestep5.wav,None,1000,8,1625744,346,133.285
I,2,1493731,vowelstep3.wav,None,1000,8,1627744,355,135.285
I,2,1493731,sinestep5.wav,None,1000,8,1629744,325,137.285
I,2,1493731,sinestep1.wav,None,1000,8,1631744,335,139.285
I,2,1493731,vowelstep7.wav,None,1000,8,1633744,335,141.285
I,2,1493731,silence.wav,None,1000,8,1635744,346,143.285
I,2,1493731,vowelstep7.wav,None,1000,8,1637744,345,145.285
I,2,1493731,silence.wav,None,1000,8,1639744,346,147.285
I,2,1493731,sinestep1.wav,None,1000,8,1641744,325,149.285
I,2,1493731,vowelstep1.wav,None,1000,8,1643744,355,151.285
I,2,1493731,vowelstep3.wav,None,1000,8,1645744,335,153.285
I,2,1493731,silence.wav,None,1000,8,1647744,334,155.285
I,2,1493731,silence.wav,None,1000,8,1649744,335,157.285
I,2,1493731,vowelstep1.wav,None,1000,8,1651744,344,159.285
I,2,1493731,sinestep1.wav,None,1000,8,1653744,345,161.285
I,2,1493731,vowelstep3_catch.wav,2,164,8,1655744,355,163.285
I,2,1493731,sinestep1.wav,None,1000,8,1657744,1190,165.285
I,2,1493731,vowelstep5.wav,None,1000,8,1659745,333,167.285
I,2,1493731,vowelstep5_catch.wav,2,69,8,1661745,334,169.285
I,2,1493731,sinestep1.wav,None,1000,8,1663745,1264,171.285
I,2,1493731,silence.wav,None,1000,8,1665745,344,173.285
I,2,1493731,vowelstep5.wav,None,1000,8,1667744,343,175.285
I,2,1493731,sinestep3.wav,None,1000,8,1669744,343,177.285
I,2,1493731,sinestep3.wav,None,1000,8,1671744,324,179.285
I,2,1493731,silence.wav,None,1000,8,1673744,332,181.285
I,2,1493731,silence.wav,None,1000,8,1675744,333,183.285
I,2,1493731,vowelstep3.wav,None,1000,8,1677745,343,185.285
I,2,1493731,vowelstep7.wav,None,1000,8,1679745,342,187.285
I,2,1493731,vowelstep7.wav,None,1000,8,1681745,342,189.285
I,2,1493731,silence.wav,None,1000,8,1683745,342,191.285
I,2,1493731,sinestep3.wav,None,1000,8,1685745,331,193.285
I,2,1493731,sinestep3.wav,None,1000,8,1687745,332,195.285
I,2,1493731,vowelstep5.wav,None,1000,8,1689745,333,197.285
I,2,1493731,vowelstep1.wav,None,1000,8,1691744,333,199.285
I,2,1493731,vowelstep1.wav,None,1000,8,1693744,342,201.285
I,2,1493731,sinestep5.wav,None,1000,8,1695745,342,203.285
I,2,1493731,silence.wav,None,1000,8,1697745,341,205.285
I,2,1493731,sinestep5.wav,None,1000,8,1699745,321,207.285
I,2,1493731,sinestep7.wav,None,1000,8,1701745,331,209.285
I,2,1493731,sinestep1.wav,None,1000,8,1703745,331,211.285
I,2,1493731,sinestep5.wav,None,1000,8,1705745,331,213.285
I,2,1493731,vowelstep5.wav,None,1000,8,1707745,340,215.285
I,2,1493731,sinestep7.wav,None,1000,8,1709745,341,217.285
I,2,1493731,sinestep5.wav,None,1000,8,1711746,341,219.285
I,2,1493731,sinestep3.wav,None,1000,8,1713745,351,221.285
I,2,1493731,silence.wav,None,1000,8,1715745,331,223.285
I,2,1493731,vowelstep7_catch.wav,2,220,8,1717745,330,225.285
I,2,1493731,sinestep7.wav,None,1000,8,1719745,1110,227.285
I,2,1493731,sinestep7.wav,None,1000,8,1721745,330,229.285
I,2,1493731,sinestep3.wav,None,1000,8,1723745,341,231.285
I,2,1493731,vowelstep3.wav,None,1000,8,1725745,339,233.285
I,2,1493731,silence.wav,None,1000,8,1727745,350,235.285
I,2,1493731,sinestep3.wav,None,1000,8,1729746,328,237.285
I,2,1493731,sinestep5.wav,None,1000,8,1731746,329,239.285
I,2,1493731,silence.wav,None,1000,8,1733746,329,241.285
I,2,1493731,vowelstep3.wav,None,1000,8,1735746,338,243.285
I,2,1493731,sinestep1.wav,None,1000,8,1737746,339,245.285
I,2,1493731,sinestep1.wav,None,1000,8,1739745,338,247.285
I,2,1493731,sinestep7.wav,None,1000,8,1741745,348,249.285
I,2,1493731,vowelstep7.wav,None,1000,8,1743745,319,251.285
I,2,1493731,vowelstep5.wav,None,1000,8,1745745,329,253.285
I,2,1493731,silence.wav,None,1000,8,1747746,329,255.285
I,2,1493731,sinestep3.wav,None,1000,8,1749746,337,257.285
I,2,1493731,vowelstep1.wav,None,1000,8,1751746,338,259.285
I,2,1493731,vowelstep1.wav,None,1000,8,1753746,338,261.285
I,2,1493731,silence.wav,None,1000,8,1755746,338,263.285
I,2,1493731,vowelstep3.wav,None,1000,8,1757746,327,265.285
I,2,1493731,silence.wav,None,1000,8,1759746,327,267.285
I,2,1493731,silence.wav,None,1000,8,1761746,328,269.285
I,2,1493731,sinestep7.wav,None,1000,8,1763745,328,271.285
I,2,1493731,sinestep7.wav,None,1000,8,1765746,337,273.285
I,2,1493731,vowelstep5.wav,None,1000,8,1767746,336,275.285
I,2,1493731,silence.wav,None,1000,8,1769746,336,277.285
I,2,1493731,silence.wav,None,1000,8,1771746,316,279.285
I,2,1493731,sinestep1.wav,None,1000,8,1773746,327,281.285
I,2,1493731,silence.wav,None,1000,8,1775746,326,283.285
I,2,1493731,vowelstep7.wav,None,1000,8,1777746,326,285.285
I,2,1493731,vowelstep5_catch.wav,2,126,8,1779746,336,287.285
I,2,1493731,sinestep7.wav,None,1000,8,1781747,1209,289.285
I,2,1493731,sinestep1.wav,None,1000,8,1783747,335,291.285
I,2,1493731,vowelstep3_catch.wav,2,191,8,1785747,315,293.285
I,2,1493731,sinestep1.wav,None,1000,8,1787746,1133,295.285
I,2,1493731,vowelstep7.wav,None,1000,8,1789746,326,297.285
I,2,1493731,sinestep3.wav,None,1000,8,1791746,324,299.285
I,2,1493731,vowelstep5.wav,None,1000,8,1793746,335,301.285
I,2,1493731,vowelstep1_catch.wav,2,338,8,1795746,335,303.285
I,2,1493731,vowelstep7.wav,None,1000,8,1797746,997,305.285
I,2,1493731,vowelstep5.wav,None,1000,8,1799747,345,307.285
I,2,1493731,sinestep1_catch.wav,2,100,8,1801747,323,309.285
I,2,1493731,silence.wav,None,1000,8,1803747,1223,311.285
I,2,1493731,sinestep7.wav,None,1000,8,1805747,323,313.285
I,2,1493731,silence.wav,None,1000,8,1807747,333,315.285
I,2,1493731,vowelstep1.wav,None,1000,8,1809747,334,317.285
I,2,1493731,sinestep7.wav,None,1000,8,1811746,333,319.285
H,3,1870058,sinestep3.wav,None,1000,8,1870065,0,1.285
H,3,1870058,sinestep7.wav,None,1000,8,1872065,337,3.285
H,3,1870058,sinestep3.wav,None,1000,8,1874065,346,5.285
H,3,1870058,vowelstep3.wav,None,1000,8,1876064,347,7.285
H,3,1870058,vowelstep1.wav,None,1000,8,1878064,347,9.285
H,3,1870058,sinestep7.wav,None,1000,8,1880064,356,11.285
H,3,1870058,vowelstep3.wav,None,1000,8,1882064,336,13.285
H,3,1870058,silence.wav,None,1000,8,1884064,336,15.285
H,3,1870058,vowelstep1.wav,None,1000,8,1886064,337,17.285
H,3,1870058,sinestep5.wav,None,1000,8,1888065,331,19.285
H,3,1870058,sinestep7.wav,None,1000,8,1890065,345,21.285
H,3,1870058,vowelstep7.wav,None,1000,8,1892065,345,23.285
H,3,1870058,vowelstep1_catch.wav,2,226,8,1894065,326,25.285
H,3,1870058,sinestep5.wav,None,1000,8,1896065,1109,27.285
H,3,1870058,vowelstep5.wav,None,1000,8,1898065,337,29.285
H,3,1870058,silence.wav,None,1000,8,1900064,336,31.285
H,3,1870058,vowelstep3_catch.wav,2,191,8,1902064,345,33.285
H,3,1870058,sinestep7.wav,None,1000,8,1904065,1153,35.285
H,3,1870058,sinestep5.wav,None,1000,8,1906065,344,37.285
H,3,1870058,silence.wav,None,1000,8,1908065,345,39.285
H,3,1870058,vowelstep3.wav,None,1000,8,1910065,333,41.285
H,3,1870058,vowelstep1.wav,None,1000,8,1912065,334,43.285
H,3,1870058,vowelstep1.wav,None,1000,8,1914065,335,45.285
H,3,1870058,vowelstep3.wav,None,1000,8,1916065,333,47.285
H,3,1870058,sinestep3.wav,None,1000,8,1918065,343,49.285
H,3,1870058,vowelstep1.wav,None,1000,8,1920065,343,51.285
H,3,1870058,sinestep7.wav,None,1000,8,1922066,353,53.285
H,3,1870058,vowelstep7.wav,None,1000,8,1924065,333,55.285
H,3,1870058,vowelstep5_catch.wav,2,583,8,1926065,332,57.285
H,3,1870058,vowelstep5.wav,None,1000,8,1928065,750,59.285
H,3,1870058,vowelstep3.wav,None,1000,8,1930065,342,61.285
H,3,1870058,vowelstep7_catch.wav,2,102,8,1932065,343,63.285
H,3,1870058,sinestep3.wav,None,1000,8,1934065,1239,65.285
H,3,1870058,sinestep1.wav,None,1000,8,1936065,343,67.285
H,3,1870058,sinestep7.wav,None,1000,8,1938065,352,69.285
H,3,1870058,silence.wav,None,1000,8,1940066,333,71.285
H,3,1870058,vowelstep1.wav,None,1000,8,1942066,331,73.285
H,3,1870058,vowelstep7.wav,None,1000,8,1944066,332,75.285
H,3,1870058,sinestep7.wav,None,1000,8,1946066,341,77.285
H,3,1870058,sinestep1.wav,None,1000,8,1948065,341,79.285
H,3,1870058,sinestep7.wav,None,1000,8,1950065,341,81.285
H,3,1870058,sinestep1.wav,None,1000,8,1952065,351,83.285
H,3,1870058,vowelstep5.wav,None,1000,8,1954065,331,85.285
H,3,1870058,sinestep3.wav,None,1000,8,1956065,332,87.285
H,3,1870058,vowelstep5.wav,None,1000,8,1958066,330,89.285
H,3,1870058,silence.wav,None,1000,8,1960066,340,91.285
H,3,1870058,silence.wav,None,1000,8,1962066,340,93.285
H,3,1870058,sinestep5.wav,None,1000,8,1964066,351,95.285
H,3,1870058,sinestep3.wav,None,1000,8,1966066,320,97.285
H,3,1870058,sinestep7.wav,None,1000,8,1968066,329,99.285
H,3,1870058,sinestep7_catch.wav,2,63,8,1970066,330,101.285
H,3,1870058,silence.wav,None,1000,8,1972066,1266,103.285
H,3,1870058,sinestep3.wav,None,1000,8,1974066,339,105.285
H,3,1870058,silence.wav,None,1000,8,1976066,338,107.285
H,3,1870058,vowelstep1.wav,None,1000,8,1978066,338,109.285
H,3,1870058,vowelstep7.wav,None,1000,8,1980066,348,111.285
H,3,1870058,sinestep5.wav,None,1000,8,1982066,328,113.285
H,3,1870058,silence.wav,None,1000,8,1984066,328,115.285
H,3,1870058,vowelstep7.wav,None,1000,8,1986066,328,117.285
H,3,1870058,vowelstep3.wav,None,1000,8,1988066,338,119.285
H,3,1870058,sinestep5.wav,None,1000,8,1990066,337,121.285
H,3,1870058,sinestep1.wav,None,1000,8,1992067,349,123.285
H,3,1870058,vowelstep3.wav,None,1000,8,1994067,347,125.285
H,3,1870058,vowelstep3.wav,None,1000,8,1996067,326,127.285
H,3,1870058,vowelstep5.wav,None,1000,8,1998066,328,129.285
H,3,1870058,vowelstep1.wav,None,1000,8,2000066,336,131.285
H,3,1870058,vowelstep7.wav,None,1000,8,2002066,337,133.285
H,3,1870058,vowelstep3.wav,None,1000,8,2004066,337,135.285
H,3,1870058,vowelstep5.wav,None,1000,8,2006066,337,137.285
H,3,1870058,vowelstep5.wav,None,1000,8,2008066,336,139.285
H,3,1870058,sinestep7.wav,None,1000,8,2010067,327,141.285
H,3,1870058,vowelstep1.wav,None,1000,8,2012067,326,143.285
H,3,1870058,sinestep3.wav,None,1000,8,2014067,325,145.285
H,3,1870058,sinestep1.wav,None,1000,8,2016067,336,147.285
H,3,1870058,vowelstep1.wav,None,1000,8,2018067,335,149.285
H,3,1870058,sinestep5_catch.wav,2,112,8,2020067,335,151.285
H,3,1870058,sinestep7.wav,None,1000,8,2022066,1233,153.285
H,3,1870058,sinestep3_catch.wav,2,110,8,2024066,345,155.285
H,3,1870058,sinestep7.wav,None,1000,8,2026066,1234,157.285
H,3,1870058,sinestep5.wav,None,1000,8,2028067,327,159.285
H,3,1870058,silence.wav,None,1000,8,2030067,320,161.285
H,3,1870058,sinestep1_catch.wav,2,167,8,2032067,337,163.285
H,3,1870058,vowelstep7.wav,None,1000,8,2034067,1170,165.285
H,3,1870058,vowelstep7.wav,None,1000,8,2036067,346,167.285
H,3,1870058,sinestep7.wav,None,1000,8,2038067,347,169.285
H,3,1870058,sinestep3.wav,None,1000,8,2040067,346,171.285
H,3,1870058,sinestep5.wav,None,1000,8,2042067,347,173.285
H,3,1870058,vowelstep1_catch.wav,2,248,8,2044068,337,175.285
H,3,1870058,vowelstep1.wav,None,1000,8,2046067,1088,177.285
H,3,1870058,sinestep3.wav,None,1000,8,2048067,337,179.285
H,3,1870058,sinestep3.wav,None,1000,8,2050067,336,181.285
H,3,1870058,vowelstep5.wav,None,1000,8,2052067,347,183.285
H,3,1870058,sinestep1.wav,None,1000,8,2054067,347,185.285
H,3,1870058,sinestep1.wav,None,1000,8,2056067,357,187.285
H,3,1870058,vowelstep7.wav,None,1000,8,2058067,328,189.285
H,3,1870058,sinestep1.wav,None,1000,8,2060067,336,191.285
H,3,1870058,sinestep5.wav,None,1000,8,2062068,337,193.285
H,3,1870058,vowelstep3_catch.wav,2,127,8,2064068,346,195.285
H,3,1870058,sinestep1.wav,None,1000,8,2066068,1218,197.285
H,3,1870058,silence.wav,None,1000,8,2068068,347,199.285
H,3,1870058,vowelstep1.wav,None,1000,8,2070067,346,201.285
H,3,1870058,vowelstep5_catch.wav,None,1000,8,2072067,335,203.285
H,3,1870058,sinestep5.wav,None,1000,8,2074067,335,205.285
H,3,1870058,sinestep1.wav,None,1000,8,2076067,335,207.285
H,3,1870058,silence.wav,None,1000,8,2078067,335,209.285
H,3,1870058,sinestep3.wav,None,1000,8,2080068,345,211.285
H,3,1870058,silence.wav,None,1000,8,2082068,343,213.285
H,3,1870058,vowelstep7_catch.wav,2,225,8,2084068,354,215.285
H,3,1870058,vowelstep5.wav,None,1000,8,2086068,1128,217.285
H,3,1870058,sinestep7.wav,None,1000,8,2088068,335,219.285
H,3,1870058,silence.wav,None,1000,8,2090068,334,221.285
H,3,1870058,sinestep1.wav,None,1000,8,2092068,334,223.285
H,3,1870058,silence.wav,None,1000,8,2094067,345,225.285
H,3,1870058,silence.wav,None,1000,8,2096067,345,227.285
H,3,1870058,silence.wav,None,1000,8,2098068,345,229.285
H,3,1870058,silence.wav,None,1000,8,2100068,355,231.285
H,3,1870058,sinestep5.wav,None,1000,8,2102068,334,233.285
H,3,1870058,silence.wav,None,1000,8,2104068,335,235.285
H,3,1870058,vowelstep3.wav,None,1000,8,2106068,334,237.285
H,3,1870058,silence.wav,None,1000,8,2108068,345,239.285
H,3,1870058,silence.wav,None,1000,8,2110068,343,241.285
H,3,1870058,vowelstep1_catch.wav,2,245,8,2112068,344,243.285
H,3,1870058,vowelstep5.wav,None,1000,8,2114069,1108,245.285
H,3,1870058,vowelstep7.wav,None,1000,8,2116069,333,247.285
H,3,1870058,vowelstep3_catch.wav,2,287,8,2118068,333,249.285
H,3,1870058,vowelstep1.wav,None,1000,8,2120068,1044,251.285
H,3,1870058,sinestep3.wav,None,1000,8,2122068,343,253.285
H,3,1870058,vowelstep5_catch.wav,2,215,8,2124068,342,255.285
H,3,1870058,vowelstep5.wav,None,1000,8,2126068,1126,257.285
H,3,1870058,silence.wav,None,1000,8,2128068,352,259.285
H,3,1870058,vowelstep7.wav,None,1000,8,2130068,332,261.285
H,3,1870058,sinestep5.wav,None,1000,8,2132069,332,263.285
H,3,1870058,vowelstep5.wav,None,1000,8,2134069,332,265.285
H,3,1870058,vowelstep7.wav,None,1000,8,2136069,341,267.285
H,3,1870058,vowelstep3.wav,None,1000,8,2138069,341,269.285
H,3,1870058,vowelstep3.wav,None,1000,8,2140069,342,271.285
H,3,1870058,silence.wav,None,1000,8,2142068,342,273.285
H,3,1870058,vowelstep3.wav,None,1000,8,2144068,331,275.285
H,3,1870058,sinestep1.wav,None,1000,8,2146068,332,277.285
H,3,1870058,silence.wav,None,1000,8,2148068,332,279.285
H,3,1870058,sinestep1.wav,None,1000,8,2150069,331,281.285
H,3,1870058,vowelstep3.wav,None,1000,8,2152069,340,283.285
H,3,1870058,silence.wav,None,1000,8,2154069,341,285.285
H,3,1870058,vowelstep5.wav,None,1000,8,2156069,349,287.285
H,3,1870058,vowelstep5.wav,None,1000,8,2158069,330,289.285
H,3,1870058,vowelstep1.wav,None,1000,8,2160069,330,291.285
H,3,1870058,sinestep5.wav,None,1000,8,2162069,330,293.285
H,3,1870058,vowelstep7.wav,None,1000,8,2164069,340,295.285
H,3,1870058,vowelstep1.wav,None,1000,8,2166068,340,297.285
H,3,1870058,vowelstep7.wav,None,1000,8,2168069,339,299.285
H,3,1870058,vowelstep3.wav,None,1000,8,2170069,349,301.285
H,3,1870058,sinestep1.wav,None,1000,8,2172069,330,303.285
H,3,1870058,sinestep5.wav,None,1000,8,2174069,329,305.285
H,3,1870058,vowelstep5.wav,None,1000,8,2176069,330,307.285
H,3,1870058,sinestep3.wav,None,1000,8,2178069,339,309.285
H,3,1870058,vowelstep7.wav,None,1000,8,2180069,341,311.285
H,3,1870058,sinestep7.wav,None,1000,8,2182069,338,313.285
H,3,1870058,sinestep5.wav,None,1000,8,2184070,339,315.285
H,3,1870058,sinestep3.wav,None,1000,8,2186070,348,317.285
H,3,1870058,sinestep1.wav,None,1000,8,2188070,327,319.285
C,4,2256450,sinestep1.wav,None,1000,8,2256454,0,1.285
C,4,2256450,vowelstep1.wav,None,1000,8,2258454,343,3.285
C,4,2256450,sinestep1.wav,None,1000,8,2260454,344,5.285
C,4,2256450,sinestep1.wav,None,1000,8,2262454,346,7.285
C,4,2256450,vowelstep1.wav,None,1000,8,2264470,345,9.285
C,4,2256450,sinestep1.wav,None,1000,8,2266454,335,11.285
C,4,2256450,sinestep7.wav,None,1000,8,2268454,334,13.285
C,4,2256450,vowelstep7.wav,None,1000,8,2270453,335,15.285
C,4,2256450,vowelstep3.wav,None,1000,8,2272454,335,17.285
C,4,2256450,vowelstep5.wav,None,1000,8,2274454,344,19.285
C,4,2256450,silence.wav,None,1000,8,2276454,341,21.285
C,4,2256450,sinestep3.wav,None,1000,8,2278454,354,23.285
C,4,2256450,vowelstep5.wav,None,1000,8,2280454,353,25.285
C,4,2256450,sinestep1.wav,None,1000,8,2282454,334,27.285
C,4,2256450,vowelstep1.wav,None,1000,8,2284454,334,29.285
C,4,2256450,vowelstep7.wav,None,1000,8,2286454,335,31.285
C,4,2256450,vowelstep3.wav,None,1000,8,2288454,345,33.285
C,4,2256450,sinestep1.wav,None,1000,8,2290455,342,35.285
C,4,2256450,sinestep5.wav,None,1000,8,2292455,343,37.285
C,4,2256450,silence.wav,None,1000,8,2294454,323,39.285
C,4,2256450,vowelstep7.wav,None,1000,8,2296454,332,41.285
C,4,2256450,vowelstep5.wav,None,1000,8,2298454,333,43.285
C,4,2256450,sinestep5.wav,None,1000,8,2300454,332,45.285
C,4,2256450,silence.wav,None,1000,8,2302454,342,47.285
C,4,2256450,sinestep5.wav,None,1000,8,2304454,342,49.285
C,4,2256450,sinestep1.wav,None,1000,8,2306455,342,51.285
C,4,2256450,silence.wav,None,1000,8,2308455,342,53.285
C,4,2256450,vowelstep1.wav,None,1000,8,2310455,331,55.285
C,4,2256450,vowelstep1.wav,None,1000,8,2312455,331,57.285
C,4,2256450,sinestep1.wav,None,1000,8,2314455,332,59.285
C,4,2256450,silence.wav,None,1000,8,2316455,341,61.285
C,4,2256450,vowelstep5.wav,None,1000,8,2318454,343,63.285
C,4,2256450,vowelstep3.wav,None,1000,8,2320454,341,65.285
C,4,2256450,vowelstep3.wav,None,1000,8,2322454,351,67.285
C,4,2256450,vowelstep7.wav,None,1000,8,2324455,331,69.285
C,4,2256450,silence.wav,None,1000,8,2326455,330,71.285
C,4,2256450,vowelstep3.wav,None,1000,8,2328455,328,73.285
C,4,2256450,silence.wav,None,1000,8,2330455,342,75.285
C,4,2256450,sinestep5.wav,None,1000,8,2332455,342,77.285
C,4,2256450,vowelstep7.wav,None,1000,8,2334455,342,79.285
C,4,2256450,vowelstep1_catch.wav,2,229,8,2336455,352,81.285
C,4,2256450,vowelstep3.wav,None,1000,8,2338455,1102,83.285
C,4,2256450,sinestep7.wav,None,1000,8,2340455,333,85.285
C,4,2256450,vowelstep3.wav,None,1000,8,2342455,328,87.285
C,4,2256450,sinestep1.wav,None,1000,8,2344455,332,89.285
C,4,2256450,sinestep7.wav,None,1000,8,2346455,341,91.285
C,4,2256450,sinestep7.wav,None,1000,8,2348455,342,93.285
C,4,2256450,sinestep3.wav,None,1000,8,2350455,351,95.285
C,4,2256450,vowelstep3_catch.wav,2,138,8,2352455,352,97.285
C,4,2256450,sinestep5.wav,None,1000,8,2354455,1191,99.285
C,4,2256450,sinestep5.wav,None,1000,8,2356455,361,101.285
C,4,2256450,vowelstep3.wav,None,1000,8,2358455,340,103.285
C,4,2256450,vowelstep5.wav,None,1000,8,2360456,340,105.285
C,4,2256450,sinestep1.wav,None,1000,8,2362456,340,107.285
C,4,2256450,sinestep3.wav,None,1000,8,2364456,340,109.285
C,4,2256450,vowelstep5.wav,None,1000,8,2366455,350,111.285
C,4,2256450,vowelstep7.wav,None,1000,8,2368455,350,113.285
C,4,2256450,vowelstep1.wav,None,1000,8,2370455,351,115.285
C,4,2256450,sinestep7.wav,None,1000,8,2372455,360,117.285
C,4,2256450,sinestep3.wav,None,1000,8,2374455,340,119.285
C,4,2256450,vowelstep1.wav,None,1000,8,2376456,340,121.285
C,4,2256450,vowelstep1.wav,None,1000,8,2378456,339,123.285
C,4,2256450,sinestep3.wav,None,1000,8,2380456,349,125.285
C,4,2256450,silence.wav,None,1000,8,2382456,349,127.285
C,4,2256450,silence.wav,None,1000,8,2384456,358,129.285
C,4,2256450,vowelstep5_catch.wav,2,213,8,2386456,326,131.285
C,4,2256450,vowelstep5.wav,None,1000,8,2388456,1125,133.285
C,4,2256450,silence.wav,None,1000,8,2390455,337,135.285
C,4,2256450,sinestep1.wav,None,1000,8,2392455,349,137.285
C,4,2256450,vowelstep7.wav,None,1000,8,2394456,349,139.285
C,4,2256450,sinestep7.wav,None,1000,8,2396456,348,141.285
C,4,2256450,silence.wav,None,1000,8,2398456,348,143.285
C,4,2256450,silence.wav,None,1000,8,2400456,358,145.285
C,4,2256450,sinestep7.wav,None,1000,8,2402456,337,147.285
C,4,2256450,vowelstep1.wav,None,1000,8,2404456,338,149.285
C,4,2256450,vowelstep5.wav,None,1000,8,2406456,338,151.285
C,4,2256450,vowelstep5.wav,None,1000,8,2408456,348,153.285
C,4,2256450,vowelstep7.wav,None,1000,8,2410456,349,155.285
C,4,2256450,sinestep7.wav,None,1000,8,2412457,358,157.285
C,4,2256450,vowelstep1.wav,None,1000,8,2414457,327,159.285
C,4,2256450,vowelstep3.wav,None,1000,8,2416456,338,161.285
C,4,2256450,sinestep5.wav,None,1000,8,2418456,337,163.285
C,4,2256450,sinestep7.wav,None,1000,8,2420456,346,165.285
C,4,2256450,sinestep1.wav,None,1000,8,2422456,347,167.285
C,4,2256450,sinestep7.wav,None,1000,8,2424456,347,169.285
C,4,2256450,sinestep3.wav,None,1000,8,2426456,347,171.285
C,4,2256450,silence.wav,None,1000,8,2428456,357,173.285
C,4,2256450,vowelstep7.wav,None,1000,8,2430457,335,175.285
C,4,2256450,sinestep7.wav,None,1000,8,2432457,336,177.285
C,4,2256450,sinestep5.wav,None,1000,8,2434457,336,179.285
C,4,2256450,vowelstep7.wav,None,1000,8,2436457,346,181.285
C,4,2256450,vowelstep5.wav,None,1000,8,2438457,345,183.285
C,4,2256450,vowelstep3.wav,None,1000,8,2440456,346,185.285
C,4,2256450,vowelstep7_catch.wav,2,355,8,2442456,357,187.285
C,4,2256450,vowelstep3.wav,None,1000,8,2444456,980,189.285
C,4,2256450,vowelstep5.wav,None,1000,8,2446457,335,191.285
C,4,2256450,vowelstep7.wav,None,1000,8,2448457,333,193.285
C,4,2256450,vowelstep7_catch.wav,2,238,8,2450457,334,195.285
C,4,2256450,vowelstep5_catch.wav,2,273,8,2452457,1107,197.285
C,4,2256450,sinestep5.wav,None,1000,8,2454457,1072,199.285
C,4,2256450,sinestep3.wav,None,1000,8,2456457,355,201.285
C,4,2256450,vowelstep3_catch.wav,2,205,8,2458457,334,203.285
C,4,2256450,vowelstep1_catch.wav,2,99,8,2460457,1129,205.285
C,4,2256450,vowelstep5.wav,None,1000,8,2462457,1234,207.285
C,4,2256450,vowelstep1.wav,None,1000,8,2464457,344,209.285
C,4,2256450,sinestep1_catch.wav,2,125,8,2466457,343,211.285
C,4,2256450,sinestep3_catch.wav,2,48,8,2468457,1218,213.285
C,4,2256450,sinestep1.wav,None,1000,8,2470457,1295,215.285
C,4,2256450,vowelstep3.wav,None,1000,8,2472457,334,217.285
C,4,2256450,sinestep3.wav,None,1000,8,2474457,333,219.285
C,4,2256450,vowelstep5.wav,None,1000,8,2476457,333,221.285
C,4,2256450,sinestep7.wav,None,1000,8,2478457,334,223.285
C,4,2256450,sinestep1.wav,None,1000,8,2480457,343,225.285
C,4,2256450,sinestep5_catch.wav,2,163,8,2482458,343,227.285
C,4,2256450,vowelstep7.wav,None,1000,8,2484458,1178,229.285
C,4,2256450,vowelstep3.wav,None,1000,8,2486458,322,231.285
C,4,2256450,silence.wav,None,1000,8,2488457,333,233.285
C,4,2256450,vowelstep1.wav,None,1000,8,2490457,332,235.285
C,4,2256450,sinestep5.wav,None,1000,8,2492457,333,237.285
C,4,2256450,sinestep1.wav,None,1000,8,2494457,342,239.285
C,4,2256450,vowelstep7.wav,None,1000,8,2496457,343,241.285
C,4,2256450,sinestep3.wav,None,1000,8,2498457,343,243.285
C,4,2256450,sinestep3.wav,None,1000,8,2500458,330,245.285
C,4,2256450,sinestep5.wav,None,1000,8,2502458,330,247.285
C,4,2256450,vowelstep3.wav,None,1000,8,2504458,331,249.285
C,4,2256450,sinestep3.wav,None,1000,8,2506458,331,251.285
C,4,2256450,silence.wav,None,1000,8,2508458,341,253.285
C,4,2256450,sinestep3.wav,None,1000,8,2510458,341,255.285
C,4,2256450,vowelstep1.wav,None,1000,8,2512457,351,257.285
C,4,2256450,silence.wav,None,1000,8,2514457,351,259.285
C,4,2256450,vowelstep1.wav,None,1000,8,2516458,329,261.285
C,4,2256450,silence.wav,None,1000,8,2518458,330,263.285
C,4,2256450,sinestep7.wav,None,1000,8,2520458,330,265.285
C,4,2256450,sinestep3.wav,None,1000,8,2522458,340,267.285
C,4,2256450,vowelstep1.wav,None,1000,8,2524458,341,269.285
C,4,2256450,sinestep7.wav,None,1000,8,2526458,341,271.285
C,4,2256450,sinestep7_catch.wav,2,106,8,2528458,350,273.285
C,4,2256450,vowelstep5.wav,None,1000,8,2530458,1224,275.285
C,4,2256450,silence.wav,None,1000,8,2532458,329,277.285
C,4,2256450,silence.wav,None,1000,8,2534459,330,279.285
C,4,2256450,sinestep3.wav,None,1000,8,2536458,338,281.285
C,4,2256450,vowelstep7.wav,None,1000,8,2538458,339,283.285
C,4,2256450,sinestep5.wav,None,1000,8,2540458,339,285.285
C,4,2256450,sinestep5.wav,None,1000,8,2542458,349,287.285
C,4,2256450,vowelstep3.wav,None,1000,8,2544458,329,289.285
C,4,2256450,sinestep3.wav,None,1000,8,2546458,328,291.285
C,4,2256450,silence.wav,None,1000,8,2548458,328,293.285
C,4,2256450,silence.wav,None,1000,8,2550458,339,295.285
C,4,2256450,vowelstep7.wav,None,1000,8,2552459,338,297.285
C,4,2256450,silence.wav,None,1000,8,2554459,337,299.285
C,4,2256450,vowelstep5.wav,None,1000,8,2556459,316,301.285
C,4,2256450,sinestep5.wav,None,1000,8,2558459,327,303.285
C,4,2256450,silence.wav,None,1000,8,2560458,327,305.285
C,4,2256450,silence.wav,None,1000,8,2562458,327,307.285
C,4,2256450,silence.wav,None,1000,8,2564458,336,309.285
C,4,2256450,sinestep7_catch.wav,2,344,8,2566458,336,311.285
C,4,2256450,sinestep7.wav,None,1000,8,2568459,987,313.285
C,4,2256450,sinestep5_catch.wav,2,214,8,2570459,346,315.285
C,4,2256450,sinestep5.wav,None,1000,8,2572459,1111,317.285
C,4,2256450,sinestep3_catch.wav,2,28,8,2574459,325,319.285
G,5,2658626,vowelstep3.wav,None,1000,8,2658644,0,1.285
G,5,2658626,vowelstep3.wav,None,1000,8,2660644,315,3.285
G,5,2658626,vowelstep7.wav,None,1000,8,2662644,316,5.285
G,5,2658626,vowelstep3.wav,None,1000,8,2664644,315,7.285
G,5,2658626,sinestep5.wav,None,1000,8,2666643,316,9.285
G,5,2658626,sinestep1_catch.wav,2,140,8,2668643,326,11.285
G,5,2658626,silence.wav,None,1000,8,2670643,1185,13.285
G,5,2658626,silence.wav,None,1000,8,2672643,336,15.285
G,5,2658626,vowelstep7.wav,None,1000,8,2674644,336,17.285
G,5,2658626,vowelstep1.wav,None,1000,8,2676644,315,19.285
G,5,2658626,silence.wav,None,1000,8,2678644,335,21.285
G,5,2658626,sinestep1.wav,None,1000,8,2680644,325,23.285
G,5,2658626,vowelstep7.wav,None,1000,8,2682644,324,25.285
G,5,2658626,sinestep5.wav,None,1000,8,2684644,325,27.285
G,5,2658626,sinestep5.wav,None,1000,8,2686644,325,29.285
G,5,2658626,sinestep3.wav,None,1000,8,2688644,335,31.285
G,5,2658626,vowelstep3.wav,None,1000,8,2690643,334,33.285
G,5,2658626,silence.wav,None,1000,8,2692644,332,35.285
G,5,2658626,vowelstep1.wav,None,1000,8,2694644,321,37.285
G,5,2658626,sinestep7.wav,None,1000,8,2696644,321,39.285
G,5,2658626,vowelstep5.wav,None,1000,8,2698644,322,41.285
G,5,2658626,vowelstep3.wav,None,1000,8,2700644,321,43.285
G,5,2658626,sinestep1.wav,None,1000,8,2702644,331,45.285
G,5,2658626,sinestep7.wav,None,1000,8,2704644,333,47.285
G,5,2658626,sinestep1.wav,None,1000,8,2706644,311,49.285
G,5,2658626,sinestep5.wav,None,1000,8,2708645,311,51.285
G,5,2658626,vowelstep1.wav,None,1000,8,2710645,321,53.285
G,5,2658626,silence.wav,None,1000,8,2712644,321,55.285
G,5,2658626,sinestep5.wav,None,1000,8,2714644,331,57.285
G,5,2658626,vowelstep1.wav,None,1000,8,2716644,331,59.285
G,5,2658626,vowelstep3.wav,None,1000,8,2718644,330,61.285
G,5,2658626,sinestep3.wav,None,1000,8,2720644,330,63.285
G,5,2658626,sinestep1.wav,None,1000,8,2722644,234,65.285
G,5,2658626,vowelstep5.wav,None,1000,8,2724644,320,67.285
G,5,2658626,vowelstep3.wav,None,1000,8,2726645,320,69.285
G,5,2658626,vowelstep5.wav,None,1000,8,2728645,330,71.285
G,5,2658626,vowelstep7.wav,None,1000,8,2730645,329,73.285
G,5,2658626,vowelstep5.wav,None,1000,8,2732645,328,75.285
G,5,2658626,vowelstep5.wav,None,1000,8,2734645,330,77.285
G,5,2658626,sinestep3.wav,None,1000,8,2736645,339,79.285
G,5,2658626,sinestep3_catch.wav,2,222,8,2738644,320,81.285
G,5,2658626,sinestep5_catch.wav,2,400,8,2740644,1096,83.285
G,5,2658626,sinestep7.wav,None,1000,8,2742644,919,85.285
G,5,2658626,sinestep7_catch.wav,2,171,8,2744645,329,87.285
G,5,2658626,sinestep7.wav,None,1000,8,2746645,1157,89.285
G,5,2658626,vowelstep1.wav,None,1000,8,2748645,328,91.285
G,5,2658626,vowelstep7.wav,None,1000,8,2750645,309,93.285
G,5,2658626,vowelstep3.wav,None,1000,8,2752645,319,95.285
G,5,2658626,sinestep3.wav,None,1000,8,2754645,319,97.285
G,5,2658626,sinestep1.wav,None,1000,8,2756645,318,99.285
G,5,2658626,sinestep1.wav,None,1000,8,2758645,329,101.285
G,5,2658626,sinestep5.wav,None,1000,8,2760644,328,103.285
G,5,2658626,vowelstep7.wav,None,1000,8,2762645,327,105.285
G,5,2658626,silence.wav,None,1000,8,2764629,337,107.285
G,5,2658626,sinestep3.wav,None,1000,8,2766645,338,109.285
G,5,2658626,vowelstep1.wav,None,1000,8,2768645,316,111.285
G,5,2658626,sinestep3.wav,None,1000,8,2770645,317,113.285
G,5,2658626,sinestep3.wav,None,1000,8,2772645,327,115.285
G,5,2658626,sinestep7.wav,None,1000,8,2774645,327,117.285
G,5,2658626,silence.wav,None,1000,8,2776645,327,119.285
G,5,2658626,vowelstep5.wav,None,1000,8,2778646,306,121.285
G,5,2658626,sinestep1_catch.wav,2,200,8,2780629,316,123.285
G,5,2658626,silence.wav,None,1000,8,2782629,1136,125.285
G,5,2658626,sinestep5.wav,None,1000,8,2784629,346,127.285
G,5,2658626,sinestep7.wav,None,1000,8,2786645,346,129.285
G,5,2658626,sinestep3.wav,None,1000,8,2788645,326,131.285
G,5,2658626,sinestep3.wav,None,1000,8,2790645,326,133.285
G,5,2658626,vowelstep5.wav,None,1000,8,2792645,336,135.285
G,5,2658626,sinestep3.wav,None,1000,8,2794645,316,137.285
G,5,2658626,sinestep3_catch.wav,2,141,8,2796629,315,139.285
G,5,2658626,vowelstep1.wav,None,1000,8,2798629,1203,141.285
G,5,2658626,vowelstep1.wav,None,1000,8,2800629,344,143.285
G,5,2658626,sinestep5.wav,None,1000,8,2802629,345,145.285
G,5,2658626,silence.wav,None,1000,8,2804646,345,147.285
G,5,2658626,sinestep3.wav,None,1000,8,2806646,335,149.285
G,5,2658626,silence.wav,None,1000,8,2808646,305,151.285
G,5,2658626,vowelstep3.wav,None,1000,8,2810645,318,153.285
G,5,2658626,sinestep5.wav,None,1000,8,2812629,316,155.285
G,5,2658626,vowelstep7.wav,None,1000,8,2814630,346,157.285
G,5,2658626,silence.wav,None,1000,8,2816630,345,159.285
G,5,2658626,sinestep5_catch.wav,2,210,8,2818629,355,161.285
G,5,2658626,vowelstep5.wav,None,1000,8,2820629,1124,163.285
G,5,2658626,silence.wav,None,1000,8,2822646,335,165.285
G,5,2658626,vowelstep7.wav,None,1000,8,2824646,315,167.285
G,5,2658626,vowelstep1.wav,None,1000,8,2826646,315,169.285
G,5,2658626,vowelstep1.wav,None,1000,8,2828629,325,171.285
G,5,2658626,vowelstep1.wav,None,1000,8,2830629,344,173.285
G,5,2658626,sinestep5.wav,None,1000,8,2832630,353,175.285
G,5,2658626,vowelstep3.wav,None,1000,8,2834630,323,177.285
G,5,2658626,sinestep1.wav,None,1000,8,2836630,333,179.285
G,5,2658626,vowelstep1.wav,None,1000,8,2838630,333,181.285
G,5,2658626,sinestep1.wav,None,1000,8,2840646,334,183.285
G,5,2658626,sinestep7.wav,None,1000,8,2842646,314,185.285
G,5,2658626,sinestep7.wav,None,1000,8,2844629,323,187.285
G,5,2658626,sinestep3.wav,None,1000,8,2846629,345,189.285
G,5,2658626,sinestep5.wav,None,1000,8,2848630,353,191.285
G,5,2658626,silence.wav,None,1000,8,2850630,333,193.285
G,5,2658626,sinestep7_catch.wav,2,242,8,2852630,333,195.285
G,5,2658626,vowelstep7_catch.wav,2,388,8,2854630,1090,197.285
G,5,2658626,sinestep7.wav,None,1000,8,2856630,956,199.285
G,5,2658626,silence.wav,None,1000,8,2858630,343,201.285
G,5,2658626,sinestep7.wav,None,1000,8,2860630,343,203.285
G,5,2658626,sinestep3.wav,None,1000,8,2862630,323,205.285
G,5,2658626,vowelstep7.wav,None,1000,8,2864630,332,207.285
G,5,2658626,sinestep1.wav,None,1000,8,2866630,334,209.285
G,5,2658626,silence.wav,None,1000,8,2868630,342,211.285
G,5,2658626,silence.wav,None,1000,8,2870630,341,213.285
G,5,2658626,vowelstep7.wav,None,1000,8,2872630,342,215.285
G,5,2658626,vowelstep5.wav,None,1000,8,2874630,341,217.285
G,5,2658626,sinestep7.wav,None,1000,8,2876630,352,219.285
G,5,2658626,vowelstep5.wav,None,1000,8,2878630,331,221.285
G,5,2658626,vowelstep5_catch.wav,2,177,8,2880630,331,223.285
G,5,2658626,vowelstep7.wav,None,1000,8,2882630,1154,225.285
G,5,2658626,silence.wav,None,1000,8,2884631,341,227.285
G,5,2658626,silence.wav,None,1000,8,2886631,341,229.285
G,5,2658626,sinestep1.wav,None,1000,8,2888631,340,231.285
G,5,2658626,silence.wav,None,1000,8,2890630,350,233.285
G,5,2658626,vowelstep7.wav,None,1000,8,2892630,330,235.285
G,5,2658626,vowelstep5.wav,None,1000,8,2894630,327,237.285
G,5,2658626,vowelstep3.wav,None,1000,8,2896630,329,239.285
G,5,2658626,vowelstep3_catch.wav,2,176,8,2898630,340,241.285
G,5,2658626,sinestep1.wav,None,1000,8,2900631,1163,243.285
G,5,2658626,silence.wav,None,1000,8,2902631,339,245.285
G,5,2658626,sinestep7.wav,None,1000,8,2904631,340,247.285
G,5,2658626,sinestep1.wav,None,1000,8,2906631,329,249.285
G,5,2658626,sinestep3.wav,None,1000,8,2908631,329,251.285
G,5,2658626,vowelstep3.wav,None,1000,8,2910631,328,253.285
G,5,2658626,vowelstep1_catch.wav,2,71,8,2912631,328,255.285
G,5,2658626,sinestep7.wav,None,1000,8,2914630,1266,257.285
G,5,2658626,silence.wav,None,1000,8,2916630,333,259.285
G,5,2658626,sinestep5.wav,None,1000,8,2918631,346,261.285
G,5,2658626,sinestep5.wav,None,1000,8,2920631,326,263.285
G,5,2658626,vowelstep5.wav,None,1000,8,2922631,327,265.285
G,5,2658626,sinestep5.wav,None,1000,8,2924631,328,267.285
G,5,2658626,sinestep7.wav,None,1000,8,2926631,327,269.285
G,5,2658626,silence.wav,None,1000,8,2928631,337,271.285
G,5,2658626,vowelstep7_catch.wav,2,113,8,2930631,337,273.285
G,5,2658626,vowelstep5.wav,None,1000,8,2932631,1233,275.285
G,5,2658626,silence.wav,None,1000,8,2934631,317,277.285
G,5,2658626,sinestep3.wav,None,1000,8,2936632,328,279.285
G,5,2658626,vowelstep5.wav,None,1000,8,2938631,326,281.285
G,5,2658626,silence.wav,None,1000,8,2940631,336,283.285
G,5,2658626,vowelstep1.wav,None,1000,8,2942631,336,285.285
G,5,2658626,sinestep1.wav,None,1000,8,2944631,336,287.285
G,5,2658626,vowelstep3.wav,None,1000,8,2946631,345,289.285
G,5,2658626,vowelstep7.wav,None,1000,8,2948631,345,291.285
G,5,2658626,vowelstep7.wav,None,1000,8,2950631,326,293.285
G,5,2658626,sinestep1.wav,None,1000,8,2952631,355,295.285
G,5,2658626,vowelstep5.wav,None,1000,8,2954632,326,297.285
G,5,2658626,silence.wav,None,1000,8,2956632,335,299.285
G,5,2658626,sinestep1.wav,None,1000,8,2958632,335,301.285
G,5,2658626,vowelstep7.wav,None,1000,8,2960632,344,303.285
G,5,2658626,vowelstep5_catch.wav,2,243,8,2962631,344,305.285
G,5,2658626,vowelstep3.wav,None,1000,8,2964631,1101,307.285
G,5,2658626,vowelstep3_catch.wav,2,261,8,2966631,345,309.285
G,5,2658626,sinestep7.wav,None,1000,8,2968631,1073,311.285
G,5,2658626,sinestep5.wav,None,1000,8,2970632,335,313.285
G,5,2658626,vowelstep1.wav,None,1000,8,2972632,335,315.285
G,5,2658626,vowelstep3.wav,None,1000,8,2974632,343,317.285
G,5,2658626,vowelstep1.wav,None,1000,8,2976632,344,319.285
D,6,3067984,sinestep5.wav,None,1000,8,3068000,0,1.285
D,6,3067984,vowelstep1_catch.wav,2,309,8,3070000,316,3.285
D,6,3067984,sinestep7.wav,None,1000,8,3072000,1006,5.285
D,6,3067984,vowelstep3.wav,None,1000,8,3074000,317,7.285
D,6,3067984,vowelstep3_catch.wav,2,81,8,3076000,316,9.285
D,6,3067984,vowelstep5_catch.wav,2,105,8,3078000,1244,11.285
D,6,3067984,sinestep7.wav,None,1000,8,3080000,1220,13.285
D,6,3067984,silence.wav,None,1000,8,3082000,335,15.285
D,6,3067984,vowelstep7_catch.wav,2,86,8,3084000,305,17.285
D,6,3067984,vowelstep7.wav,None,1000,8,3086000,1228,19.285
D,6,3067984,vowelstep3.wav,None,1000,8,3088000,316,21.285
D,6,3067984,vowelstep7_catch.wav,2,73,8,3090000,325,23.285
D,6,3067984,vowelstep5.wav,None,1000,8,3092000,1252,25.285
D,6,3067984,sinestep7.wav,None,1000,8,3094001,326,27.285
D,6,3067984,silence.wav,None,1000,8,3096001,325,29.285
D,6,3067984,vowelstep1.wav,None,1000,8,3098001,304,31.285
D,6,3067984,vowelstep1.wav,None,1000,8,3100000,314,33.285
D,6,3067984,vowelstep7.wav,None,1000,8,3102000,344,35.285
D,6,3067984,vowelstep3.wav,None,1000,8,3104000,345,37.285
D,6,3067984,sinestep3.wav,None,1000,8,3106000,325,39.285
D,6,3067984,sinestep1.wav,None,1000,8,3108000,325,41.285
D,6,3067984,vowelstep1.wav,None,1000,8,3110000,324,43.285
D,6,3067984,vowelstep1.wav,None,1000,8,3112001,334,45.285
D,6,3067984,sinestep7.wav,None,1000,8,3114001,334,47.285
D,6,3067984,sinestep3.wav,None,1000,8,3116001,334,49.285
D,6,3067984,vowelstep5_catch.wav,2,118,8,3118001,345,51.285
D,6,3067984,sinestep7.wav,None,1000,8,3120001,1206,53.285
D,6,3067984,vowelstep5.wav,None,1000,8,3122001,324,55.285
D,6,3067984,sinestep3.wav,None,1000,8,3124000,325,57.285
D,6,3067984,sinestep7.wav,None,1000,8,3126000,333,59.285
D,6,3067984,vowelstep3.wav,None,1000,8,3128001,333,61.285
D,6,3067984,vowelstep3.wav,None,1000,8,3130001,332,63.285
D,6,3067984,vowelstep3_catch.wav,2,152,8,3132001,342,65.285
D,6,3067984,silence.wav,None,1000,8,3134001,1169,67.285
D,6,3067984,vowelstep7.wav,None,1000,8,3136001,322,69.285
D,6,3067984,silence.wav,None,1000,8,3138001,322,71.285
D,6,3067984,sinestep1.wav,None,1000,8,3140001,332,73.285
D,6,3067984,vowelstep5.wav,None,1000,8,3142001,332,75.285
D,6,3067984,vowelstep1.wav,None,1000,8,3144001,333,77.285
D,6,3067984,sinestep7.wav,None,1000,8,3146002,342,79.285
D,6,3067984,vowelstep1.wav,None,1000,8,3148001,321,81.285
D,6,3067984,sinestep7.wav,None,1000,8,3150001,321,83.285
D,6,3067984,vowelstep7.wav,None,1000,8,3152001,331,85.285
D,6,3067984,vowelstep5.wav,None,1000,8,3154001,332,87.285
D,6,3067984,vowelstep1.wav,None,1000,8,3156001,331,89.285
D,6,3067984,sinestep5.wav,None,1000,8,3158001,331,91.285
D,6,3067984,sinestep5.wav,None,1000,8,3160001,332,93.285
D,6,3067984,vowelstep3.wav,None,1000,8,3162001,322,95.285
D,6,3067984,silence.wav,None,1000,8,3164002,321,97.285
D,6,3067984,sinestep1.wav,None,1000,8,3166002,320,99.285
D,6,3067984,sinestep1.wav,None,1000,8,3168002,330,101.285
D,6,3067984,sinestep3.wav,None,1000,8,3170002,330,103.285
D,6,3067984,vowelstep1.wav,None,1000,8,3172001,330,105.285
D,6,3067984,sinestep7.wav,None,1000,8,3174001,340,107.285
D,6,3067984,vowelstep3.wav,None,1000,8,3176001,320,109.285
D,6,3067984,silence.wav,None,1000,8,3178001,320,111.285
D,6,3067984,vowelstep5.wav,None,1000,8,3180001,320,113.285
D,6,3067984,vowelstep1.wav,None,1000,8,3182002,329,115.285
D,6,3067984,vowelstep1_catch.wav,2,152,8,3184002,329,117.285
D,6,3067984,vowelstep7.wav,None,1000,8,3186002,1177,119.285
D,6,3067984,sinestep5.wav,None,1000,8,3188002,329,121.285
D,6,3067984,vowelstep7.wav,None,1000,8,3190002,319,123.285
D,6,3067984,sinestep1.wav,None,1000,8,3192002,319,125.285
D,6,3067984,sinestep1.wav,None,1000,8,3194002,319,127.285
D,6,3067984,vowelstep3.wav,None,1000,8,3196001,331,129.285
D,6,3067984,sinestep1.wav,None,1000,8,3198002,329,131.285
D,6,3067984,silence.wav,None,1000,8,3200002,328,133.285
D,6,3067984,sinestep3.wav,None,1000,8,3202002,328,135.285
D,6,3067984,silence.wav,None,1000,8,3204002,318,137.285
D,6,3067984,vowelstep3.wav,None,1000,8,3206002,318,139.285
D,6,3067984,vowelstep5.wav,None,1000,8,3208002,318,141.285
D,6,3067984,silence.wav,None,1000,8,3210002,317,143.285
D,6,3067984,sinestep5.wav,None,1000,8,3212002,328,145.285
D,6,3067984,sinestep5.wav,None,1000,8,3214002,327,147.285
D,6,3067984,sinestep1.wav,None,1000,8,3216003,329,149.285
D,6,3067984,vowelstep5.wav,None,1000,8,3218003,299,151.285
D,6,3067984,vowelstep5.wav,None,1000,8,3220002,317,153.285
D,6,3067984,sinestep1_catch.wav,2,136,8,3222002,318,155.285
D,6,3067984,sinestep5.wav,None,1000,8,3224002,1191,157.285
D,6,3067984,vowelstep3.wav,None,1000,8,3226002,328,159.285
D,6,3067984,vowelstep7.wav,None,1000,8,3228002,328,161.285
D,6,3067984,vowelstep3.wav,None,1000,8,3230002,328,163.285
D,6,3067984,sinestep3.wav,None,1000,8,3232002,315,165.285
D,6,3067984,sinestep1.wav,None,1000,8,3234003,317,167.285
D,6,3067984,silence.wav,None,1000,8,3236003,317,169.285
D,6,3067984,sinestep1.wav,None,1000,8,3238003,316,171.285
D,6,3067984,vowelstep1.wav,None,1000,8,3240003,326,173.285
D,6,3067984,vowelstep3.wav,None,1000,8,3242003,324,175.285
D,6,3067984,silence.wav,None,1000,8,3244003,326,177.285
D,6,3067984,sinestep7.wav,None,1000,8,3246002,335,179.285
D,6,3067984,silence.wav,None,1000,8,3248002,316,181.285
D,6,3067984,vowelstep7.wav,None,1000,8,3250002,316,183.285
D,6,3067984,sinestep3.wav,None,1000,8,3252003,316,185.285
D,6,3067984,vowelstep1.wav,None,1000,8,3254003,326,187.285
D,6,3067984,sinestep7.wav,None,1000,8,3256003,326,189.285
D,6,3067984,silence.wav,None,1000,8,3258003,325,191.285
D,6,3067984,sinestep1.wav,None,1000,8,3260003,305,193.285
D,6,3067984,sinestep3.wav,None,1000,8,3262003,315,195.285
D,6,3067984,sinestep5.wav,None,1000,8,3264003,315,197.285
D,6,3067984,vowelstep3.wav,None,1000,8,3266003,315,199.285
D,6,3067984,sinestep5.wav,None,1000,8,3268004,325,201.285
D,6,3067984,sinestep5.wav,None,1000,8,3269987,324,203.285
D,6,3067984,sinestep3.wav,None,1000,8,3271987,355,205.285
D,6,3067984,sinestep3.wav,None,1000,8,3274003,324,207.285
D,6,3067984,sinestep5.wav,None,1000,8,3276003,314,209.285
D,6,3067984,sinestep3_catch.wav,2,149,8,3278003,314,211.285
D,6,3067984,vowelstep7.wav,None,1000,8,3280003,1165,213.285
D,6,3067984,sinestep1.wav,None,1000,8,3282003,323,215.285
D,6,3067984,sinestep7.wav,None,1000,8,3284003,324,217.285
D,6,3067984,vowelstep1.wav,None,1000,8,3285987,324,219.285
D,6,3067984,sinestep5.wav,None,1000,8,3287987,334,221.285
D,6,3067984,silence.wav,None,1000,8,3289987,332,223.285
D,6,3067984,sinestep5_catch.wav,2,160,8,3292004,333,225.285
D,6,3067984,sinestep5.wav,None,1000,8,3294003,1153,227.285
D,6,3067984,silence.wav,None,1000,8,3296003,323,229.285
D,6,3067984,vowelstep7.wav,None,1000,8,3298003,323,231.285
D,6,3067984,sinestep3.wav,None,1000,8,3300003,323,233.285
D,6,3067984,vowelstep5.wav,None,1000,8,3302003,332,235.285
D,6,3067984,vowelstep7.wav,None,1000,8,3303987,313,237.285
D,6,3067984,vowelstep5.wav,None,1000,8,3305987,331,239.285
D,6,3067984,silence.wav,None,1000,8,3307987,342,241.285
D,6,3067984,silence.wav,None,1000,8,3310004,342,243.285
D,6,3067984,silence.wav,None,1000,8,3312004,321,245.285
D,6,3067984,sinestep7.wav,None,1000,8,3314004,322,247.285
D,6,3067984,sinestep5.wav,None,1000,8,3316004,331,249.285
D,6,3067984,sinestep7_catch.wav,2,130,8,3317987,269,251.285
D,6,3067984,vowelstep1.wav,None,1000,8,3320003,1201,253.285
D,6,3067984,vowelstep1.wav,None,1000,8,3321988,312,255.285
D,6,3067984,vowelstep3.wav,None,1000,8,3323987,341,257.285
D,6,3067984,silence.wav,None,1000,8,3325987,342,259.285
D,6,3067984,sinestep5.wav,None,1000,8,3328004,351,261.285
D,6,3067984,vowelstep7.wav,None,1000,8,3330004,330,263.285
D,6,3067984,vowelstep3.wav,None,1000,8,3332004,301,265.285
D,6,3067984,vowelstep7.wav,None,1000,8,3333987,311,267.285
D,6,3067984,vowelstep5.wav,None,1000,8,3335987,332,269.285
D,6,3067984,sinestep1.wav,None,1000,8,3337988,341,271.285
D,6,3067984,sinestep7.wav,None,1000,8,3339988,339,273.285
D,6,3067984,sinestep3.wav,None,1000,8,3341988,338,275.285
D,6,3067984,silence.wav,None,1000,8,3343988,320,277.285
D,6,3067984,sinestep7.wav,None,1000,8,3345988,329,279.285
D,6,3067984,vowelstep5.wav,None,1000,8,3348004,329,281.285
D,6,3067984,sinestep1.wav,None,1000,8,3349987,330,283.285
D,6,3067984,vowelstep1.wav,None,1000,8,3351987,340,285.285
D,6,3067984,sinestep1.wav,None,1000,8,3353987,339,287.285
D,6,3067984,vowelstep5.wav,None,1000,8,3355988,339,289.285
D,6,3067984,silence.wav,None,1000,8,3357988,348,291.285
D,6,3067984,sinestep3.wav,None,1000,8,3359988,329,293.285
D,6,3067984,vowelstep5.wav,None,1000,8,3361988,328,295.285
D,6,3067984,silence.wav,None,1000,8,3363988,328,297.285
D,6,3067984,sinestep3.wav,None,1000,8,3365988,329,299.285
D,6,3067984,vowelstep7.wav,None,1000,8,3367988,339,301.285
D,6,3067984,sinestep7_catch.wav,2,294,8,3369988,339,303.285
D,6,3067984,sinestep5_catch.wav,2,103,8,3371988,1054,305.285
D,6,3067984,sinestep3.wav,None,1000,8,3373988,1224,307.285
D,6,3067984,vowelstep5.wav,None,1000,8,3375988,328,309.285
D,6,3067984,silence.wav,None,1000,8,3377988,327,311.285
D,6,3067984,sinestep3_catch.wav,2,62,8,3379988,338,313.285
D,6,3067984,silence.wav,None,1000,8,3381988,1274,315.285
D,6,3067984,vowelstep7.wav,None,1000,8,3383988,337,317.285
D,6,3067984,silence.wav,None,1000,8,3385988,348,319.285
B,7,3443878,vowelstep5.wav,None,1000,8,3443890,0,1.285
B,7,3443878,silence.wav,None,1000,8,3445889,327,3.285
B,7,3443878,sinestep7.wav,None,1000,8,3447889,338,5.285
B,7,3443878,vowelstep1_catch.wav,2,382,8,3449889,337,7.285
B,7,3443878,vowelstep7.wav,None,1000,8,3451889,953,9.285
B,7,3443878,vowelstep3.wav,None,1000,8,3453889,347,11.285
B,7,3443878,vowelstep7.wav,None,1000,8,3455889,328,13.285
B,7,3443878,vowelstep5.wav,None,1000,8,3457889,328,15.285
B,7,3443878,vowelstep7.wav,None,1000,8,3459889,328,17.285
B,7,3443878,vowelstep3.wav,None,1000,8,3461890,337,19.285
B,7,3443878,silence.wav,None,1000,8,3463890,337,21.285
B,7,3443878,silence.wav,None,1000,8,3465890,346,23.285
B,7,3443878,sinestep5.wav,None,1000,8,3467890,316,25.285
B,7,3443878,sinestep1.wav,None,1000,8,3469889,326,27.285
B,7,3443878,vowelstep7.wav,None,1000,8,3471889,328,29.285
B,7,3443878,sinestep5.wav,None,1000,8,3473889,336,31.285
B,7,3443878,vowelstep1.wav,None,1000,8,3475889,336,33.285
B,7,3443878,vowelstep7.wav,None,1000,8,3477890,335,35.285
B,7,3443878,vowelstep3.wav,None,1000,8,3479890,335,37.285
B,7,3443878,sinestep5.wav,None,1000,8,3481890,345,39.285
B,7,3443878,vowelstep1.wav,None,1000,8,3483890,325,41.285
B,7,3443878,sinestep3.wav,None,1000,8,3485890,325,43.285
B,7,3443878,vowelstep5.wav,None,1000,8,3487890,324,45.285
B,7,3443878,vowelstep7.wav,None,1000,8,3489890,335,47.285
B,7,3443878,vowelstep3.wav,None,1000,8,3491890,334,49.285
B,7,3443878,sinestep7.wav,None,1000,8,3493889,335,51.285
B,7,3443878,sinestep3.wav,None,1000,8,3495890,346,53.285
B,7,3443878,sinestep1.wav,None,1000,8,3497890,324,55.285
B,7,3443878,sinestep1.wav,None,1000,8,3499890,325,57.285
B,7,3443878,sinestep5.wav,None,1000,8,3501890,334,59.285
B,7,3443878,vowelstep5.wav,None,1000,8,3503890,334,61.285
B,7,3443878,vowelstep3_catch.wav,2,448,8,3505890,334,63.285
B,7,3443878,vowelstep7.wav,None,1000,8,3507890,886,65.285
B,7,3443878,sinestep1.wav,None,1000,8,3509890,344,67.285
B,7,3443878,vowelstep5.wav,None,1000,8,3511890,325,69.285
B,7,3443878,vowelstep5_catch.wav,2,221,8,3513891,324,71.285
B,7,3443878,vowelstep7.wav,None,1000,8,3515891,1101,73.285
B,7,3443878,sinestep3.wav,None,1000,8,3517890,333,75.285
B,7,3443878,vowelstep7_catch.wav,2,181,8,3519890,331,77.285
B,7,3443878,sinestep5.wav,None,1000,8,3521890,1150,79.285
B,7,3443878,vowelstep5.wav,None,1000,8,3523890,343,81.285
B,7,3443878,silence.wav,None,1000,8,3525890,323,83.285
B,7,3443878,silence.wav,None,1000,8,3527890,323,85.285
B,7,3443878,vowelstep3.wav,None,1000,8,3529890,322,87.285
B,7,3443878,silence.wav,None,1000,8,3531891,331,89.285
B,7,3443878,sinestep1.wav,None,1000,8,3533891,332,91.285
B,7,3443878,sinestep1.wav,None,1000,8,3535891,332,93.285
B,7,3443878,sinestep5.wav,None,1000,8,3537891,333,95.285
B,7,3443878,vowelstep7.wav,None,1000,8,3539891,322,97.285
B,7,3443878,sinestep5.wav,None,1000,8,3541890,323,99.285
B,7,3443878,sinestep5.wav,None,1000,8,3543890,322,101.285
B,7,3443878,silence.wav,None,1000,8,3545890,332,103.285
B,7,3443878,vowelstep1.wav,None,1000,8,3547891,330,105.285
B,7,3443878,silence.wav,None,1000,8,3549891,330,107.285
B,7,3443878,sinestep1.wav,None,1000,8,3551891,330,109.285
B,7,3443878,vowelstep7.wav,None,1000,8,3553891,321,111.285
B,7,3443878,silence.wav,None,1000,8,3555891,320,113.285
B,7,3443878,sinestep1.wav,None,1000,8,3557891,321,115.285
B,7,3443878,vowelstep3.wav,None,1000,8,3559891,320,117.285
B,7,3443878,vowelstep5.wav,None,1000,8,3561891,330,119.285
B,7,3443878,silence.wav,None,1000,8,3563891,331,121.285
B,7,3443878,sinestep3.wav,None,1000,8,3565892,340,123.285
B,7,3443878,sinestep5.wav,None,1000,8,3567891,309,125.285
B,7,3443878,silence.wav,None,1000,8,3569891,320,127.285
B,7,3443878,vowelstep5.wav,None,1000,8,3571891,319,129.285
B,7,3443878,sinestep3.wav,None,1000,8,3573891,330,131.285
B,7,3443878,sinestep5.wav,None,1000,8,3575891,330,133.285
B,7,3443878,sinestep5.wav,None,1000,8,3577891,329,135.285
B,7,3443878,sinestep7.wav,None,1000,8,3579891,330,137.285
B,7,3443878,sinestep7.wav,None,1000,8,3581891,321,139.285
B,7,3443878,vowelstep5.wav,None,1000,8,3583892,320,141.285
B,7,3443878,sinestep1.wav,None,1000,8,3585892,319,143.285
B,7,3443878,vowelstep7.wav,None,1000,8,3587892,318,145.285
B,7,3443878,sinestep7.wav,None,1000,8,3589892,329,147.285
B,7,3443878,vowelstep5.wav,None,1000,8,3591891,328,149.285
B,7,3443878,vowelstep1.wav,None,1000,8,3593891,328,151.285
B,7,3443878,sinestep3.wav,None,1000,8,3595891,339,153.285
B,7,3443878,silence.wav,None,1000,8,3597891,318,155.285
B,7,3443878,silence.wav,None,1000,8,3599891,319,157.285
B,7,3443878,sinestep7_catch.wav,2,259,8,3601892,317,159.285
B,7,3443878,vowelstep5.wav,None,1000,8,3603892,1069,161.285
B,7,3443878,sinestep7.wav,None,1000,8,3605892,328,163.285
B,7,3443878,vowelstep5.wav,None,1000,8,3607892,328,165.285
B,7,3443878,vowelstep3.wav,None,1000,8,3609892,338,167.285
B,7,3443878,silence.wav,None,1000,8,3611892,318,169.285
B,7,3443878,sinestep3.wav,None,1000,8,3613892,319,171.285
B,7,3443878,sinestep7_catch.wav,2,352,8,3615891,318,173.285
B,7,3443878,sinestep3.wav,None,1000,8,3617892,975,175.285
B,7,3443878,sinestep5_catch.wav,2,211,8,3619892,327,177.285
B,7,3443878,vowelstep5.wav,None,1000,8,3621892,1115,179.285
B,7,3443878,silence.wav,None,1000,8,3623892,337,181.285
B,7,3443878,sinestep7.wav,None,1000,8,3625892,317,183.285
B,7,3443878,silence.wav,None,1000,8,3627892,317,185.285
B,7,3443878,sinestep3.wav,None,1000,8,3629892,317,187.285
B,7,3443878,silence.wav,None,1000,8,3631892,327,189.285
B,7,3443878,vowelstep7.wav,None,1000,8,3633892,325,191.285
B,7,3443878,vowelstep3.wav,None,1000,8,3635893,327,193.285
B,7,3443878,vowelstep3.wav,None,1000,8,3637893,336,195.285
B,7,3443878,sinestep7.wav,None,1000,8,3639892,315,197.285
B,7,3443878,sinestep7.wav,None,1000,8,3641892,317,199.285
B,7,3443878,sinestep3.wav,None,1000,8,3643892,315,201.285
B,7,3443878,sinestep3_catch.wav,2,219,8,3645892,326,203.285
B,7,3443878,sinestep1.wav,None,1000,8,3647892,1105,205.285
B,7,3443878,sinestep1.wav,None,1000,8,3649892,326,207.285
B,7,3443878,sinestep3.wav,None,1000,8,3651892,325,209.285
B,7,3443878,silence.wav,None,1000,8,3653893,315,211.285
B,7,3443878,silence.wav,None,1000,8,3655893,314,213.285
B,7,3443878,sinestep5_catch.wav,2,699,8,3657893,314,215.285
B,7,3443878,sinestep7.wav,None,1000,8,3659893,614,217.285
B,7,3443878,sinestep7.wav,None,1000,8,3661893,325,219.285
B,7,3443878,vowelstep3.wav,None,1000,8,3663892,324,221.285
B,7,3443878,sinestep1_catch.wav,2,86,8,3665892,334,223.285
B,7,3443878,vowelstep5.wav,None,1000,8,3667892,1248,225.285
B,7,3443878,sinestep1.wav,None,1000,8,3669892,335,227.285
B,7,3443878,vowelstep1.wav,None,1000,8,3671893,343,229.285
B,7,3443878,vowelstep1.wav,None,1000,8,3673893,323,231.285
B,7,3443878,sinestep5.wav,None,1000,8,3675893,323,233.285
B,7,3443878,silence.wav,None,1000,8,3677893,324,235.285
B,7,3443878,silence.wav,None,1000,8,3679893,333,237.285
B,7,3443878,vowelstep1.wav,None,1000,8,3681893,303,239.285
B,7,3443878,vowelstep1.wav,None,1000,8,3683893,314,241.285
B,7,3443878,silence.wav,None,1000,8,3685893,333,243.285
B,7,3443878,vowelstep1_catch.wav,2,246,8,3687893,343,245.285
B,7,3443878,sinestep7.wav,None,1000,8,3689893,1076,247.285
B,7,3443878,sinestep1.wav,None,1000,8,3691893,322,249.285
B,7,3443878,vowelstep1.wav,None,1000,8,3693893,322,251.285
B,7,3443878,vowelstep3.wav,None,1000,8,3695893,332,253.285
B,7,3443878,sinestep3.wav,None,1000,8,3697893,333,255.285
B,7,3443878,silence.wav,None,1000,8,3699893,332,257.285
B,7,3443878,vowelstep3.wav,None,1000,8,3701893,312,259.285
B,7,3443878,silence.wav,None,1000,8,3703893,322,261.285
B,7,3443878,vowelstep3.wav,None,1000,8,3705894,322,263.285
B,7,3443878,sinestep5.wav,None,1000,8,3707894,331,265.285
B,7,3443878,vowelstep3_catch.wav,2,167,8,3709894,331,267.285
B,7,3443878,sinestep3.wav,None,1000,8,3711893,1165,269.285
B,7,3443878,sinestep1.wav,None,1000,8,3713893,331,271.285
B,7,3443878,vowelstep3.wav,None,1000,8,3715893,341,273.285
B,7,3443878,vowelstep1.wav,None,1000,8,3717893,319,275.285
B,7,3443878,vowelstep5_catch.wav,2,53,8,3719893,321,277.285
B,7,3443878,vowelstep1.wav,None,1000,8,3721893,1267,279.285
B,7,3443878,vowelstep5.wav,None,1000,8,3723894,331,281.285
B,7,3443878,sinestep7.wav,None,1000,8,3725894,330,283.285
B,7,3443878,vowelstep7.wav,None,1000,8,3727894,331,285.285
B,7,3443878,vowelstep1_catch.wav,2,128,8,3729894,340,287.285
B,7,3443878,sinestep1.wav,None,1000,8,3731894,1192,289.285
B,7,3443878,vowelstep1.wav,None,1000,8,3733894,320,291.285
B,7,3443878,sinestep5.wav,None,1000,8,3735893,319,293.285
B,7,3443878,vowelstep7.wav,None,1000,8,3737893,330,295.285
B,7,3443878,sinestep7.wav,None,1000,8,3739894,330,297.285
B,7,3443878,vowelstep7_catch.wav,2,114,8,3741894,329,299.285
B,7,3443878,sinestep3.wav,None,1000,8,3743894,1194,301.285
B,7,3443878,vowelstep3.wav,None,1000,8,3745894,315,303.285
B,7,3443878,sinestep5.wav,None,1000,8,3747894,319,305.285
B,7,3443878,vowelstep1.wav,None,1000,8,3749894,320,307.285
B,7,3443878,vowelstep7.wav,None,1000,8,3751894,330,309.285
B,7,3443878,vowelstep1.wav,None,1000,8,3753894,329,311.285
B,7,3443878,sinestep7.wav,None,1000,8,3755894,329,313.285
B,7,3443878,sinestep3.wav,None,1000,8,3757895,338,315.285
B,7,3443878,silence.wav,None,1000,8,3759894,318,317.285
B,7,3443878,vowelstep1.wav,None,1000,8,3761894,317,319.285
A,8,3825848,sinestep5_catch.wav,2,550,8,3825861,0,1.285
A,8,3825848,vowelstep1.wav,None,1000,8,3827862,773,3.285
A,8,3825848,vowelstep3.wav,None,1000,8,3829862,322,5.285
A,8,3825848,sinestep1.wav,None,1000,8,3831862,324,7.285
A,8,3825848,sinestep5_catch.wav,2,78,8,3833862,334,9.285
A,8,3825848,sinestep7.wav,None,1000,8,3835862,1255,11.285
A,8,3825848,sinestep3.wav,None,1000,8,3837862,333,13.285
A,8,3825848,silence.wav,None,1000,8,3839862,344,15.285
A,8,3825848,vowelstep7.wav,None,1000,8,3841862,323,17.285
A,8,3825848,sinestep7.wav,None,1000,8,3843862,324,19.285
A,8,3825848,vowelstep5_catch.wav,2,89,8,3845863,323,21.285
A,8,3825848,sinestep7.wav,None,1000,8,3847862,1243,23.285
A,8,3825848,sinestep3.wav,None,1000,8,3849862,332,25.285
A,8,3825848,silence.wav,None,1000,8,3851862,334,27.285
A,8,3825848,sinestep3.wav,None,1000,8,3853862,343,29.285
A,8,3825848,sinestep5_catch.wav,2,110,8,3855862,322,31.285
A,8,3825848,sinestep1.wav,None,1000,8,3857862,1212,33.285
A,8,3825848,sinestep1.wav,None,1000,8,3859862,323,35.285
A,8,3825848,sinestep5.wav,None,1000,8,3861862,332,37.285
A,8,3825848,vowelstep3.wav,None,1000,8,3863863,331,39.285
A,8,3825848,vowelstep5.wav,None,1000,8,3865863,331,41.285
A,8,3825848,vowelstep3.wav,None,1000,8,3867863,341,43.285
A,8,3825848,vowelstep1.wav,None,1000,8,3869863,321,45.285
A,8,3825848,vowelstep3.wav,None,1000,8,3871862,321,47.285
A,8,3825848,sinestep3.wav,None,1000,8,3873862,321,49.285
A,8,3825848,sinestep7.wav,None,1000,8,3875862,331,51.285
A,8,3825848,sinestep5.wav,None,1000,8,3877862,331,53.285
A,8,3825848,vowelstep7_catch.wav,2,196,8,3879863,331,55.285
A,8,3825848,silence.wav,None,1000,8,3881863,1144,57.285
A,8,3825848,vowelstep3.wav,None,1000,8,3883863,321,59.285
A,8,3825848,vowelstep1.wav,None,1000,8,3885863,320,61.285
A,8,3825848,silence.wav,None,1000,8,3887863,320,63.285
A,8,3825848,sinestep3.wav,None,1000,8,3889863,330,65.285
A,8,3825848,sinestep7.wav,None,1000,8,3891863,330,67.285
A,8,3825848,sinestep5.wav,None,1000,8,3893863,331,69.285
A,8,3825848,sinestep5.wav,None,1000,8,3895862,341,71.285
A,8,3825848,sinestep7.wav,None,1000,8,3897863,310,73.285
A,8,3825848,sinestep1.wav,None,1000,8,3899863,319,75.285
A,8,3825848,sinestep5.wav,None,1000,8,3901863,319,77.285
A,8,3825848,vowelstep1.wav,None,1000,8,3903863,329,79.285
A,8,3825848,sinestep1.wav,None,1000,8,3905863,329,81.285
A,8,3825848,vowelstep5.wav,None,1000,8,3907863,329,83.285
A,8,3825848,sinestep1.wav,None,1000,8,3909863,329,85.285
A,8,3825848,silence.wav,None,1000,8,3911863,319,87.285
A,8,3825848,vowelstep1.wav,None,1000,8,3913863,319,89.285
A,8,3825848,sinestep3.wav,None,1000,8,3915864,319,91.285
A,8,3825848,vowelstep5.wav,None,1000,8,3917864,328,93.285
A,8,3825848,vowelstep5.wav,None,1000,8,3919863,328,95.285
A,8,3825848,vowelstep5.wav,None,1000,8,3921863,329,97.285
A,8,3825848,vowelstep7.wav,None,1000,8,3923863,328,99.285
A,8,3825848,vowelstep3.wav,None,1000,8,3925863,339,101.285
A,8,3825848,sinestep1.wav,None,1000,8,3927863,318,103.285
A,8,3825848,sinestep1.wav,None,1000,8,3929863,319,105.285
A,8,3825848,vowelstep7.wav,None,1000,8,3931863,318,107.285
A,8,3825848,vowelstep1.wav,None,1000,8,3933864,327,109.285
A,8,3825848,vowelstep7.wav,None,1000,8,3935864,327,111.285
A,8,3825848,silence.wav,None,1000,8,3937864,327,113.285
A,8,3825848,sinestep1.wav,None,1000,8,3939864,307,115.285
A,8,3825848,vowelstep1.wav,None,1000,8,3941864,317,117.285
A,8,3825848,silence.wav,None,1000,8,3943864,317,119.285
A,8,3825848,vowelstep1.wav,None,1000,8,3945863,318,121.285
A,8,3825848,vowelstep3.wav,None,1000,8,3947863,328,123.285
A,8,3825848,vowelstep1.wav,None,1000,8,3949864,328,125.285
A,8,3825848,sinestep7.wav,None,1000,8,3951864,327,127.285
A,8,3825848,silence.wav,None,1000,8,3953864,326,129.285
A,8,3825848,vowelstep1.wav,None,1000,8,3955864,318,131.285
A,8,3825848,silence.wav,None,1000,8,3957864,318,133.285
A,8,3825848,sinestep7.wav,None,1000,8,3959864,318,135.285
A,8,3825848,vowelstep5.wav,None,1000,8,3961864,316,137.285
A,8,3825848,sinestep7.wav,None,1000,8,3963864,327,139.285
A,8,3825848,sinestep3.wav,None,1000,8,3965864,327,141.285
A,8,3825848,vowelstep5.wav,None,1000,8,3967865,307,143.285
A,8,3825848,silence.wav,None,1000,8,3969864,316,145.285
A,8,3825848,sinestep3.wav,None,1000,8,3971864,316,147.285
A,8,3825848,sinestep5.wav,None,1000,8,3973864,316,149.285
A,8,3825848,sinestep3.wav,None,1000,8,3975864,325,151.285
A,8,3825848,vowelstep3.wav,None,1000,8,3977864,326,153.285
A,8,3825848,sinestep3.wav,None,1000,8,3979864,326,155.285
A,8,3825848,vowelstep7_catch.wav,2,144,8,3981864,335,157.285
A,8,3825848,vowelstep7.wav,None,1000,8,3983864,1171,159.285
A,8,3825848,vowelstep5.wav,None,1000,8,3985865,315,161.285
A,8,3825848,sinestep5.wav,None,1000,8,3987865,314,163.285
A,8,3825848,silence.wav,None,1000,8,3989865,324,165.285
A,8,3825848,sinestep5.wav,None,1000,8,3991865,321,167.285
A,8,3825848,vowelstep5_catch.wav,2,165,8,3993864,324,169.285
A,8,3825848,silence.wav,None,1000,8,3995864,1170,171.285
A,8,3825848,sinestep7.wav,None,1000,8,3997864,304,173.285
A,8,3825848,sinestep5.wav,None,1000,8,3999864,315,175.285
A,8,3825848,sinestep7.wav,None,1000,8,4001864,315,177.285
A,8,3825848,vowelstep3.wav,None,1000,8,4003865,314,179.285
A,8,3825848,sinestep5.wav,None,1000,8,4005865,322,181.285
A,8,3825848,vowelstep1.wav,None,1000,8,4007865,324,183.285
A,8,3825848,vowelstep5.wav,None,1000,8,4009865,334,185.285
A,8,3825848,sinestep5.wav,None,1000,8,4011865,304,187.285
A,8,3825848,vowelstep1.wav,None,1000,8,4013865,313,189.285
A,8,3825848,silence.wav,None,1000,8,4015865,313,191.285
A,8,3825848,sinestep1.wav,None,1000,8,4017864,323,193.285
A,8,3825848,vowelstep5.wav,None,1000,8,4019865,324,195.285
A,8,3825848,sinestep3.wav,None,1000,8,4021865,322,197.285
A,8,3825848,silence.wav,None,1000,8,4023865,322,199.285
A,8,3825848,vowelstep3.wav,None,1000,8,4025865,332,201.285
A,8,3825848,vowelstep3_catch.wav,2,181,8,4027865,314,203.285
A,8,3825848,vowelstep5.wav,None,1000,8,4029865,1132,205.285
A,8,3825848,vowelstep1_catch.wav,2,215,8,4031865,313,207.285
A,8,3825848,silence.wav,None,1000,8,4033865,1107,209.285
A,8,3825848,sinestep3.wav,None,1000,8,4035865,323,211.285
A,8,3825848,vowelstep5.wav,None,1000,8,4037866,332,213.285
A,8,3825848,silence.wav,None,1000,8,4039866,301,215.285
A,8,3825848,sinestep5.wav,None,1000,8,4041865,310,217.285
A,8,3825848,vowelstep7.wav,None,1000,8,4043865,315,219.285
A,8,3825848,silence.wav,None,1000,8,4045865,325,221.285
A,8,3825848,vowelstep3.wav,None,1000,8,4047865,325,223.285
A,8,3825848,sinestep7.wav,None,1000,8,4049865,325,225.285
A,8,3825848,silence.wav,None,1000,8,4051865,325,227.285
A,8,3825848,vowelstep3.wav,None,1000,8,4053865,315,229.285
A,8,3825848,vowelstep5.wav,None,1000,8,4055866,315,231.285
A,8,3825848,vowelstep7.wav,None,1000,8,4057866,314,233.285
A,8,3825848,vowelstep3.wav,None,1000,8,4059866,324,235.285
A,8,3825848,vowelstep5.wav,None,1000,8,4061866,325,237.285
A,8,3825848,sinestep1_catch.wav,None,1000,8,4063866,325,239.285
A,8,3825848,sinestep3.wav,None,1000,8,4065865,324,241.285
A,8,3825848,sinestep1.wav,None,1000,8,4067865,334,243.285
A,8,3825848,sinestep3_catch.wav,2,90,8,4069865,334,245.285
A,8,3825848,sinestep7.wav,None,1000,8,4071865,1223,247.285
A,8,3825848,vowelstep1.wav,None,1000,8,4073866,312,249.285
A,8,3825848,sinestep3.wav,None,1000,8,4075866,322,251.285
A,8,3825848,vowelstep7.wav,None,1000,8,4077866,322,253.285
A,8,3825848,silence.wav,None,1000,8,4079866,323,255.285
A,8,3825848,sinestep1.wav,None,1000,8,4081866,333,257.285
A,8,3825848,silence.wav,None,1000,8,4083866,333,259.285
A,8,3825848,vowelstep5.wav,None,1000,8,4085866,333,261.285
A,8,3825848,sinestep5_catch.wav,2,107,8,4087866,343,263.285
A,8,3825848,vowelstep7.wav,None,1000,8,4089866,1216,265.285
A,8,3825848,sinestep3.wav,None,1000,8,4091866,323,267.285
A,8,3825848,vowelstep1.wav,None,1000,8,4093866,321,269.285
A,8,3825848,vowelstep3.wav,None,1000,8,4095866,321,271.285
A,8,3825848,sinestep7_catch.wav,2,149,8,4097866,332,273.285
A,8,3825848,silence.wav,None,1000,8,4099866,1184,275.285
A,8,3825848,vowelstep7.wav,None,1000,8,4101866,312,277.285
A,8,3825848,sinestep7.wav,None,1000,8,4103866,311,279.285
A,8,3825848,sinestep1.wav,None,1000,8,4105866,321,281.285
A,8,3825848,vowelstep7.wav,None,1000,8,4107867,322,283.285
A,8,3825848,sinestep5.wav,None,1000,8,4109867,331,285.285
A,8,3825848,sinestep5.wav,None,1000,8,4111867,331,287.285
A,8,3825848,sinestep7_catch.wav,2,78,8,4113866,331,289.285
A,8,3825848,sinestep5.wav,None,1000,8,4115866,1262,291.285
A,8,3825848,silence.wav,None,1000,8,4117866,321,293.285
A,8,3825848,vowelstep3.wav,None,1000,8,4119866,320,295.285
A,8,3825848,silence.wav,None,1000,8,4121866,320,297.285
A,8,3825848,vowelstep1.wav,None,1000,8,4123866,331,299.285
A,8,3825848,sinestep1.wav,None,1000,8,4125867,330,301.285
A,8,3825848,sinestep7.wav,None,1000,8,4127867,330,303.285
A,8,3825848,vowelstep7.wav,None,1000,8,4129867,340,305.285
A,8,3825848,sinestep1_catch.wav,2,192,8,4131867,309,307.285
A,8,3825848,silence.wav,None,1000,8,4133867,1127,309.285
A,8,3825848,silence.wav,None,1000,8,4135867,320,311.285
A,8,3825848,vowelstep7.wav,None,1000,8,4137866,330,313.285
A,8,3825848,sinestep1.wav,None,1000,8,4139866,330,315.285
A,8,3825848,vowelstep7.wav,None,1000,8,4141866,329,317.285
A,8,3825848,vowelstep7.wav,None,1000,8,4143867,328,319.285
J,9,4203222,sinestep5_catch.wav,2,257,8,4203234,0,1.285
J,9,4203222,sinestep5.wav,None,1000,8,4205234,1051,3.285
J,9,4203222,sinestep3.wav,None,1000,8,4207234,319,5.285
J,9,4203222,sinestep1.wav,None,1000,8,4209234,329,7.285
J,9,4203222,sinestep7.wav,None,1000,8,4211234,330,9.285
J,9,4203222,vowelstep3.wav,None,1000,8,4213235,330,11.285
J,9,4203222,sinestep1.wav,None,1000,8,4215235,328,13.285
J,9,4203222,vowelstep5.wav,None,1000,8,4217235,338,15.285
J,9,4203222,vowelstep3.wav,None,1000,8,4219235,318,17.285
J,9,4203222,vowelstep1.wav,None,1000,8,4221235,318,19.285
J,9,4203222,vowelstep1.wav,None,1000,8,4223235,318,21.285
J,9,4203222,sinestep3.wav,None,1000,8,4225235,328,23.285
J,9,4203222,silence.wav,None,1000,8,4227234,328,25.285
J,9,4203222,vowelstep7.wav,None,1000,8,4229234,328,27.285
J,9,4203222,sinestep3.wav,None,1000,8,4231235,337,29.285
J,9,4203222,sinestep7.wav,None,1000,8,4233235,337,31.285
J,9,4203222,silence.wav,None,1000,8,4235235,337,33.285
J,9,4203222,vowelstep5.wav,None,1000,8,4237235,317,35.285
J,9,4203222,sinestep1.wav,None,1000,8,4239235,328,37.285
J,9,4203222,sinestep1_catch.wav,2,111,8,4241235,328,39.285
J,9,4203222,sinestep7.wav,None,1000,8,4243235,1216,41.285
J,9,4203222,vowelstep7.wav,None,1000,8,4245235,328,43.285
J,9,4203222,sinestep3_catch.wav,2,32,8,4247236,315,45.285
J,9,4203222,vowelstep3.wav,None,1000,8,4249235,1303,47.285
J,9,4203222,vowelstep7.wav,None,1000,8,4251235,346,49.285
J,9,4203222,sinestep1.wav,None,1000,8,4253235,326,51.285
J,9,4203222,vowelstep3.wav,None,1000,8,4255235,326,53.285
J,9,4203222,vowelstep1.wav,None,1000,8,4257235,326,55.285
J,9,4203222,sinestep5.wav,None,1000,8,4259235,336,57.285
J,9,4203222,sinestep5_catch.wav,2,12,8,4261235,336,59.285
J,9,4203222,sinestep5.wav,None,1000,8,4263235,1324,61.285
J,9,4203222,vowelstep7.wav,None,1000,8,4265236,336,63.285
J,9,4203222,sinestep7.wav,None,1000,8,4267236,316,65.285
J,9,4203222,vowelstep1.wav,None,1000,8,4269236,326,67.285
J,9,4203222,sinestep7_catch.wav,2,77,8,4271236,325,69.285
J,9,4203222,silence.wav,None,1000,8,4273235,1246,71.285
J,9,4203222,vowelstep5.wav,None,1000,8,4275235,335,73.285
J,9,4203222,sinestep5.wav,None,1000,8,4277235,335,75.285
J,9,4203222,sinestep5.wav,None,1000,8,4279235,335,77.285
J,9,4203222,vowelstep3.wav,None,1000,8,4281235,345,79.285
J,9,4203222,vowelstep5.wav,None,1000,8,4283236,324,81.285
J,9,4203222,sinestep3.wav,None,1000,8,4285236,324,83.285
J,9,4203222,silence.wav,None,1000,8,4287236,324,85.285
J,9,4203222,vowelstep3.wav,None,1000,8,4289236,334,87.285
J,9,4203222,vowelstep7.wav,None,1000,8,4291236,334,89.285
J,9,4203222,silence.wav,None,1000,8,4293236,334,91.285
J,9,4203222,sinestep3.wav,None,1000,8,4295236,314,93.285
J,9,4203222,silence.wav,None,1000,8,4297236,324,95.285
J,9,4203222,sinestep1.wav,None,1000,8,4299235,323,97.285
J,9,4203222,sinestep5_catch.wav,2,115,8,4301236,323,99.285
J,9,4203222,sinestep7.wav,None,1000,8,4303236,1217,101.285
J,9,4203222,sinestep5.wav,None,1000,8,4305236,334,103.285
J,9,4203222,sinestep5.wav,None,1000,8,4307236,333,105.285
J,9,4203222,sinestep3.wav,None,1000,8,4309236,344,107.285
J,9,4203222,sinestep3_catch.wav,2,154,8,4311236,324,109.285
J,9,4203222,sinestep3.wav,None,1000,8,4313236,1169,111.285
J,9,4203222,silence.wav,None,1000,8,4315236,323,113.285
J,9,4203222,sinestep1.wav,None,1000,8,4317237,332,115.285
J,9,4203222,silence.wav,None,1000,8,4319237,331,117.285
J,9,4203222,vowelstep3.wav,None,1000,8,4321237,332,119.285
J,9,4203222,vowelstep5.wav,None,1000,8,4323236,341,121.285
J,9,4203222,vowelstep7.wav,None,1000,8,4325236,322,123.285
J,9,4203222,silence.wav,None,1000,8,4327236,322,125.285
J,9,4203222,sinestep1.wav,None,1000,8,4329236,318,127.285
J,9,4203222,sinestep3.wav,None,1000,8,4331236,331,129.285
J,9,4203222,sinestep7.wav,None,1000,8,4333236,331,131.285
J,9,4203222,silence.wav,None,1000,8,4335237,331,133.285
J,9,4203222,sinestep1.wav,None,1000,8,4337237,340,135.285
J,9,4203222,vowelstep7.wav,None,1000,8,4339237,321,137.285
J,9,4203222,sinestep5.wav,None,1000,8,4341237,321,139.285
J,9,4203222,vowelstep1.wav,None,1000,8,4343237,321,141.285
J,9,4203222,vowelstep7.wav,None,1000,8,4345237,330,143.285
J,9,4203222,vowelstep3.wav,None,1000,8,4347236,331,145.285
J,9,4203222,vowelstep3.wav,None,1000,8,4349236,331,147.285
J,9,4203222,sinestep7.wav,None,1000,8,4351236,340,149.285
J,9,4203222,vowelstep5.wav,None,1000,8,4353237,320,151.285
J,9,4203222,silence.wav,None,1000,8,4355237,318,153.285
J,9,4203222,sinestep1.wav,None,1000,8,4357237,319,155.285
J,9,4203222,sinestep3.wav,None,1000,8,4359237,319,157.285
J,9,4203222,silence.wav,None,1000,8,4361237,328,159.285
J,9,4203222,sinestep1.wav,None,1000,8,4363237,329,161.285
J,9,4203222,vowelstep7.wav,None,1000,8,4365237,339,163.285
J,9,4203222,vowelstep7.wav,None,1000,8,4367237,309,165.285
J,9,4203222,sinestep1_catch.wav,2,185,8,4369237,316,167.285
J,9,4203222,vowelstep1_catch.wav,2,360,8,4371237,1133,169.285
J,9,4203222,vowelstep1.wav,None,1000,8,4373237,966,171.285
J,9,4203222,vowelstep7.wav,None,1000,8,4375237,328,173.285
J,9,4203222,sinestep1.wav,None,1000,8,4377237,328,175.285
J,9,4203222,vowelstep5.wav,None,1000,8,4379237,338,177.285
J,9,4203222,vowelstep5.wav,None,1000,8,4381237,319,179.285
J,9,4203222,sinestep5.wav,None,1000,8,4383237,319,181.285
J,9,4203222,sinestep7.wav,None,1000,8,4385237,319,183.285
J,9,4203222,sinestep7.wav,None,1000,8,4387238,317,185.285
J,9,4203222,sinestep1.wav,None,1000,8,4389238,327,187.285
J,9,4203222,vowelstep1.wav,None,1000,8,4391238,327,189.285
J,9,4203222,silence.wav,None,1000,8,4393238,337,191.285
J,9,4203222,sinestep5.wav,None,1000,8,4395237,300,193.285
J,9,4203222,vowelstep5.wav,None,1000,8,4397237,317,195.285
J,9,4203222,vowelstep1.wav,None,1000,8,4399237,316,197.285
J,9,4203222,vowelstep1.wav,None,1000,8,4401237,327,199.285
J,9,4203222,sinestep3.wav,None,1000,8,4403237,326,201.285
J,9,4203222,sinestep3.wav,None,1000,8,4405238,326,203.285
J,9,4203222,silence.wav,None,1000,8,4407238,337,205.285
J,9,4203222,sinestep5.wav,None,1000,8,4409238,316,207.285
J,9,4203222,vowelstep1.wav,None,1000,8,4411238,317,209.285
J,9,4203222,vowelstep5.wav,None,1000,8,4413238,317,211.285
J,9,4203222,vowelstep3.wav,None,1000,8,4415238,316,213.285
J,9,4203222,vowelstep3.wav,None,1000,8,4417238,327,215.285
J,9,4203222,silence.wav,None,1000,8,4419237,321,217.285
J,9,4203222,sinestep1.wav,None,1000,8,4421237,326,219.285
J,9,4203222,vowelstep3.wav,None,1000,8,4423238,336,221.285
J,9,4203222,sinestep7.wav,None,1000,8,4425238,315,223.285
J,9,4203222,vowelstep7.wav,None,1000,8,4427238,315,225.285
J,9,4203222,silence.wav,None,1000,8,4429238,315,227.285
J,9,4203222,vowelstep5.wav,None,1000,8,4431238,324,229.285
J,9,4203222,silence.wav,None,1000,8,4433238,325,231.285
J,9,4203222,sinestep3.wav,None,1000,8,4435238,324,233.285
J,9,4203222,vowelstep5.wav,None,1000,8,4437238,305,235.285
J,9,4203222,vowelstep3.wav,None,1000,8,4439239,315,237.285
J,9,4203222,vowelstep5.wav,None,1000,8,4441239,313,239.285
J,9,4203222,vowelstep7.wav,None,1000,8,4443238,324,241.285
J,9,4203222,vowelstep1.wav,None,1000,8,4445238,324,243.285
J,9,4203222,sinestep7.wav,None,1000,8,4447238,323,245.285
J,9,4203222,sinestep7.wav,None,1000,8,4449238,324,247.285
J,9,4203222,silence.wav,None,1000,8,4451238,303,249.285
J,9,4203222,vowelstep1.wav,None,1000,8,4453238,314,251.285
J,9,4203222,vowelstep3_catch.wav,2,129,8,4455238,314,253.285
J,9,4203222,vowelstep1.wav,None,1000,8,4457239,1183,255.285
J,9,4203222,vowelstep5_catch.wav,2,168,8,4459239,323,257.285
J,9,4203222,silence.wav,None,1000,8,4461239,1154,259.285
J,9,4203222,sinestep5.wav,None,1000,8,4463239,323,261.285
J,9,4203222,vowelstep1.wav,None,1000,8,4465239,303,263.285
J,9,4203222,sinestep5.wav,None,1000,8,4467238,312,265.285
J,9,4203222,vowelstep3.wav,None,1000,8,4469238,313,267.285
J,9,4203222,sinestep5.wav,None,1000,8,4471238,343,269.285
J,9,4203222,sinestep7.wav,None,1000,8,4473238,322,271.285
J,9,4203222,silence.wav,None,1000,8,4475239,323,273.285
J,9,4203222,vowelstep7_catch.wav,2,183,8,4477239,323,275.285
J,9,4203222,sinestep3.wav,None,1000,8,4479239,1140,277.285
J,9,4203222,vowelstep5.wav,None,1000,8,4481239,332,279.285
J,9,4203222,silence.wav,None,1000,8,4483239,331,281.285
J,9,4203222,silence.wav,None,1000,8,4485239,342,283.285
J,9,4203222,silence.wav,None,1000,8,4487239,312,285.285
J,9,4203222,vowelstep7.wav,None,1000,8,4489239,321,287.285
J,9,4203222,sinestep3.wav,None,1000,8,4491238,322,289.285
J,9,4203222,vowelstep5_catch.wav,2,133,8,4493239,331,291.285
J,9,4203222,silence.wav,None,1000,8,4495239,1197,293.285
J,9,4203222,sinestep7.wav,None,1000,8,4497239,331,295.285
J,9,4203222,vowelstep1.wav,None,1000,8,4499239,340,297.285
J,9,4203222,silence.wav,None,1000,8,4501239,311,299.285
J,9,4203222,sinestep1.wav,None,1000,8,4503239,320,301.285
J,9,4203222,sinestep5.wav,None,1000,8,4505239,321,303.285
J,9,4203222,vowelstep5.wav,None,1000,8,4507239,331,305.285
J,9,4203222,vowelstep3.wav,None,1000,8,4509240,332,307.285
J,9,4203222,sinestep7.wav,None,1000,8,4511240,331,309.285
J,9,4203222,vowelstep7.wav,None,1000,8,4513240,340,311.285
J,9,4203222,vowelstep3_catch.wav,2,139,8,4515239,340,313.285
J,9,4203222,vowelstep1_catch.wav,2,315,8,4517239,1180,315.285
J,9,4203222,sinestep3.wav,None,1000,8,4519239,1004,317.285
J,9,4203222,sinestep1.wav,None,1000,8,4521239,330,319.285