block,count_main_sequence,first_trial_timestamp,fname,response_catch_response,response_time_catch_response,subject_nr,time_stimulus,time_to_pad,timing
P,NA,235848,vowelstep1_catch.wav,1,420,24,235865,0,
P,NA,235848,sinestep7_catch.wav,1,778,24,237864,1000,
P,NA,235848,vowelstep5_catch.wav,1,574,24,239864,655,
P,NA,235848,sinestep7.wav,None,1000,24,241864,859,
P,NA,235848,sinestep7.wav,None,1000,24,243864,443,
P,NA,235848,sinestep3.wav,None,1000,24,245865,443,
P,NA,235848,sinestep1.wav,None,1000,24,247865,442,
P,NA,235848,vowelstep7.wav,None,1000,24,249865,441,
P,NA,235848,vowelstep3.wav,None,1000,24,251865,432,
P,NA,235848,silence.wav,None,1000,24,253865,432,
P,NA,235848,sinestep1.wav,None,1000,24,255865,429,
P,NA,235848,vowelstep1.wav,None,1000,24,257865,432,
P,NA,235848,sinestep5.wav,None,1000,24,259865,442,
P,NA,235848,sinestep1.wav,None,1000,24,261865,442,
P,NA,235848,sinestep1.wav,None,1000,24,263865,451,
P,NA,235848,vowelstep1.wav,None,1000,24,265865,451,
P,NA,235848,silence.wav,None,1000,24,267865,432,
P,NA,235848,silence.wav,None,1000,24,269865,431,
P,NA,235848,silence.wav,None,1000,24,271865,431,
P,NA,235848,sinestep3_catch.wav,1,276,24,273865,441,
P,NA,235848,vowelstep7.wav,None,1000,24,275865,1165,
P,NA,235848,silence.wav,None,1000,24,277865,441,
P,NA,235848,vowelstep7.wav,None,1000,24,279866,450,
P,NA,235848,vowelstep3.wav,None,1000,24,281866,430,
P,NA,235848,silence.wav,None,1000,24,283866,430,
P,NA,235848,vowelstep1.wav,None,1000,24,285866,429,
P,NA,235848,sinestep3.wav,None,1000,24,287865,440,
P,NA,235848,vowelstep1.wav,None,1000,24,289865,440,
P,NA,235848,silence.wav,None,1000,24,291865,441,
P,NA,235848,sinestep7.wav,None,1000,24,293865,450,
P,NA,235848,sinestep5_catch.wav,1,215,24,295865,430,
P,NA,235848,silence.wav,None,1000,24,297866,1214,
P,NA,235848,sinestep7.wav,None,1000,24,299866,428,
P,NA,235848,sinestep5.wav,None,1000,24,301866,439,
P,NA,235848,sinestep3.wav,None,1000,24,303866,439,
P,NA,235848,sinestep1_catch.wav,1,251,24,305866,439,
P,NA,235848,vowelstep3_catch.wav,1,475,24,307866,1197,
P,NA,235848,vowelstep5_catch.wav,1,191,24,309866,953,
P,NA,235848,vowelstep7.wav,None,1000,24,311866,1237,
P,NA,235848,silence.wav,None,1000,24,313865,430,
P,NA,235848,vowelstep7_catch.wav,1,275,24,315866,438,
P,NA,235848,vowelstep3.wav,None,1000,24,317866,1163,
P,NA,235848,silence.wav,None,1000,24,319866,437,
P,NA,235848,sinestep7_catch.wav,1,213,24,321866,448,
P,NA,235848,sinestep7.wav,None,1000,24,323866,1214,
P,NA,235848,vowelstep5.wav,None,1000,24,325866,428,
P,NA,235848,vowelstep3.wav,None,1000,24,327866,428,
P,NA,235848,sinestep5.wav,None,1000,24,329866,438,
P,NA,235848,sinestep5_catch.wav,1,133,24,331867,438,
P,NA,235848,sinestep3.wav,None,1000,24,333867,1304,
P,NA,235848,silence.wav,None,1000,24,335866,444,
P,NA,235848,vowelstep7.wav,None,1000,24,337866,427,
P,NA,235848,sinestep3_catch.wav,1,184,24,339866,427,
P,NA,235848,vowelstep5.wav,None,1000,24,341866,1242,
P,NA,235848,silence.wav,None,1000,24,343866,408,
P,NA,235848,sinestep1.wav,None,1000,24,345866,437,
P,NA,235848,vowelstep1.wav,None,1000,24,347866,437,
P,NA,235848,silence.wav,None,1000,24,349867,438,
P,NA,235848,silence.wav,None,1000,24,351867,416,
P,NA,235848,silence.wav,None,1000,24,353867,425,
P,NA,235848,sinestep1_catch.wav,1,212,24,355867,426,
P,NA,235848,sinestep1.wav,None,1000,24,357867,1213,
P,NA,235848,silence.wav,None,1000,24,359866,436,
P,NA,235848,vowelstep1_catch.wav,1,900,24,361866,436,
P,NA,235848,vowelstep5.wav,None,1000,24,363866,535,
P,NA,235848,sinestep5.wav,None,1000,24,365866,446,
P,NA,235848,vowelstep3.wav,None,1000,24,367867,426,
P,NA,235848,silence.wav,None,1000,24,369867,425,
P,NA,235848,silence.wav,None,1000,24,371867,424,
P,NA,235848,sinestep7.wav,None,1000,24,373867,434,
P,NA,235848,vowelstep5.wav,None,1000,24,375867,434,
P,NA,235848,silence.wav,None,1000,24,377867,435,
P,NA,235848,vowelstep3_catch.wav,1,269,24,379867,415,
P,NA,235848,silence.wav,None,1000,24,381867,1155,
P,NA,235848,vowelstep5.wav,None,1000,24,383866,424,
P,NA,235848,vowelstep5_catch.wav,1,215,24,385867,424,
P,NA,235848,vowelstep7_catch.wav,1,282,24,387867,1219,
P,NA,235848,sinestep3.wav,None,1000,24,389867,1151,
P,NA,235848,vowelstep5.wav,None,1000,24,391867,434,
P,NA,235848,vowelstep3.wav,None,1000,24,393867,445,
P,NA,235848,silence.wav,None,1000,24,395867,424,
P,NA,235848,sinestep3.wav,None,1000,24,397867,420,
P,NA,235848,silence.wav,None,1000,24,399867,423,
P,NA,235848,sinestep7_catch.wav,1,227,24,401851,434,
P,NA,235848,sinestep5_catch.wav,1,135,24,403851,1224,
P,NA,235848,sinestep5.wav,None,1000,24,405851,1297,
P,NA,235848,sinestep5.wav,None,1000,24,407851,443,
P,NA,235848,vowelstep7.wav,None,1000,24,409851,442,
P,NA,235848,sinestep3_catch.wav,1,254,24,411867,442,
P,NA,235848,vowelstep1.wav,None,1000,24,413867,1167,
I,0,826651,vowelstep7.wav,None,1000,24,826658,0,1.285
I,0,826651,sinestep1_catch.wav,1,191,24,828658,337,3.285
I,0,826651,sinestep3.wav,None,1000,24,830657,1150,5.285
I,0,826651,silence.wav,None,1000,24,832657,341,7.285
I,0,826651,vowelstep7.wav,None,1000,24,834657,353,9.285
I,0,826651,sinestep3_catch.wav,1,115,24,836657,352,11.285
I,0,826651,vowelstep3.wav,None,1000,24,838657,1233,13.285
I,0,826651,vowelstep3.wav,None,1000,24,840658,331,15.285
I,0,826651,silence.wav,None,1000,24,842658,342,17.285
I,0,826651,vowelstep1.wav,None,1000,24,844658,342,19.285
I,0,826651,vowelstep5.wav,None,1000,24,846658,348,21.285
I,0,826651,vowelstep7.wav,None,1000,24,848658,351,23.285
I,0,826651,sinestep1.wav,None,1000,24,850658,352,25.285
I,0,826651,vowelstep1.wav,None,1000,24,852658,347,27.285
I,0,826651,sinestep5_catch.wav,1,146,24,854657,340,29.285
I,0,826651,sinestep5.wav,None,1000,24,856658,1194,31.285
I,0,826651,vowelstep1.wav,None,1000,24,858658,339,33.285
I,0,826651,sinestep7.wav,None,1000,24,860658,337,35.285
I,0,826651,vowelstep3.wav,None,1000,24,862658,348,37.285
I,0,826651,vowelstep1.wav,None,1000,24,864658,348,39.285
I,0,826651,vowelstep1.wav,None,1000,24,866658,347,41.285
I,0,826651,sinestep3.wav,None,1000,24,868658,360,43.285
I,0,826651,sinestep5.wav,None,1000,24,870658,339,45.285
I,0,826651,sinestep5.wav,None,1000,24,872658,339,47.285
I,0,826651,vowelstep3.wav,None,1000,24,874659,339,49.285
I,0,826651,silence.wav,None,1000,24,876659,348,51.285
I,0,826651,sinestep7_catch.wav,1,162,24,878658,347,53.285
I,0,826651,silence.wav,None,1000,24,880658,1186,55.285
I,0,826651,sinestep1.wav,None,1000,24,882658,358,57.285
I,0,826651,vowelstep1.wav,None,1000,24,884658,338,59.285
I,0,826651,sinestep1.wav,None,1000,24,886658,335,61.285
I,0,826651,sinestep1.wav,None,1000,24,888658,339,63.285
I,0,826651,vowelstep7.wav,None,1000,24,890658,348,65.285
I,0,826651,sinestep5.wav,None,1000,24,892659,349,67.285
I,0,826651,sinestep5_catch.wav,1,179,24,894659,347,69.285
I,0,826651,vowelstep7.wav,None,1000,24,896659,1167,71.285
I,0,826651,vowelstep5.wav,None,1000,24,898659,338,73.285
I,0,826651,sinestep3.wav,None,1000,24,900659,336,75.285
I,0,826651,vowelstep1.wav,None,1000,24,902658,334,77.285
I,0,826651,sinestep3.wav,None,1000,24,904658,336,79.285
I,0,826651,sinestep5.wav,None,1000,24,906658,347,81.285
I,0,826651,sinestep5.wav,None,1000,24,908658,347,83.285
I,0,826651,vowelstep5.wav,None,1000,24,910659,356,85.285
I,0,826651,vowelstep7.wav,None,1000,24,912659,326,87.285
I,0,826651,sinestep3.wav,None,1000,24,914659,336,89.285
I,0,826651,vowelstep3.wav,None,1000,24,916659,337,91.285
I,0,826651,sinestep3.wav,None,1000,24,918659,346,93.285
I,0,826651,vowelstep5.wav,None,1000,24,920659,346,95.285
I,0,826651,sinestep7.wav,None,1000,24,922659,346,97.285
I,0,826651,sinestep3_catch.wav,1,139,24,924659,343,99.285
I,0,826651,sinestep1_catch.wav,1,141,24,926659,1215,101.285
I,0,826651,vowelstep3.wav,None,1000,24,928659,1193,103.285
I,0,826651,vowelstep3.wav,None,1000,24,930659,334,105.285
I,0,826651,vowelstep5.wav,None,1000,24,932659,336,107.285
I,0,826651,sinestep5.wav,None,1000,24,934659,344,109.285
I,0,826651,vowelstep5.wav,None,1000,24,936659,345,111.285
I,0,826651,vowelstep5.wav,None,1000,24,938659,355,113.285
I,0,826651,vowelstep1.wav,None,1000,24,940659,323,115.285
I,0,826651,vowelstep1_catch.wav,1,223,24,942659,330,117.285
I,0,826651,sinestep7.wav,None,1000,24,944660,1111,119.285
I,0,826651,vowelstep3.wav,None,1000,24,946660,344,121.285
I,0,826651,sinestep7.wav,None,1000,24,948660,344,123.285
I,0,826651,sinestep7.wav,None,1000,24,950659,344,125.285
I,0,826651,vowelstep7.wav,None,1000,24,952659,354,127.285
I,0,826651,vowelstep3.wav,None,1000,24,954659,355,129.285
I,0,826651,sinestep5.wav,None,1000,24,956659,334,131.285
I,0,826651,sinestep5.wav,None,1000,24,958659,333,133.285
I,0,826651,vowelstep3.wav,None,1000,24,960659,344,135.285
I,0,826651,sinestep5.wav,None,1000,24,962660,344,137.285
I,0,826651,sinestep1.wav,None,1000,24,964660,343,139.285
I,0,826651,vowelstep7.wav,None,1000,24,966660,338,141.285
I,0,826651,silence.wav,None,1000,24,968660,352,143.285
I,0,826651,vowelstep7.wav,None,1000,24,970660,332,145.285
I,0,826651,silence.wav,None,1000,24,972660,333,147.285
I,0,826651,sinestep1.wav,None,1000,24,974660,333,149.285
I,0,826651,vowelstep1.wav,None,1000,24,976659,343,151.285
I,0,826651,vowelstep3.wav,None,1000,24,978660,343,153.285
I,0,826651,silence.wav,None,1000,24,980660,342,155.285
I,0,826651,silence.wav,None,1000,24,982660,319,157.285
I,0,826651,vowelstep1.wav,None,1000,24,984660,332,159.285
I,0,826651,sinestep1.wav,None,1000,24,986660,332,161.285
I,0,826651,vowelstep3_catch.wav,1,176,24,988660,340,163.285
I,0,826651,sinestep1.wav,None,1000,24,990660,1165,165.285
I,0,826651,vowelstep5.wav,None,1000,24,992660,343,167.285
I,0,826651,vowelstep5_catch.wav,1,207,24,994660,342,169.285
I,0,826651,sinestep1.wav,None,1000,24,996661,1145,171.285
I,0,826651,silence.wav,None,1000,24,998661,331,173.285
I,0,826651,vowelstep5.wav,None,1000,24,1000660,332,175.285
I,0,826651,sinestep3.wav,None,1000,24,1002660,332,177.285
I,0,826651,sinestep3.wav,None,1000,24,1004660,342,179.285
I,0,826651,silence.wav,None,1000,24,1006660,341,181.285
I,0,826651,silence.wav,None,1000,24,1008660,342,183.285
I,0,826651,vowelstep3.wav,None,1000,24,1010660,351,185.285
I,0,826651,vowelstep7.wav,None,1000,24,1012660,352,187.285
I,0,826651,vowelstep7.wav,None,1000,24,1014661,328,189.285
I,0,826651,silence.wav,None,1000,24,1016661,360,191.285
I,0,826651,sinestep3.wav,None,1000,24,1018661,339,193.285
I,0,826651,sinestep3.wav,None,1000,24,1020661,341,195.285
I,0,826651,vowelstep5.wav,None,1000,24,1022661,336,197.285
I,0,826651,vowelstep1.wav,None,1000,24,1024660,351,199.285
I,0,826651,vowelstep1.wav,None,1000,24,1026660,349,201.285
I,0,826651,sinestep5.wav,None,1000,24,1028660,351,203.285
I,0,826651,silence.wav,None,1000,24,1030660,361,205.285
I,0,826651,sinestep5.wav,None,1000,24,1032661,339,207.285
I,0,826651,sinestep7.wav,None,1000,24,1034661,339,209.285
I,0,826651,sinestep1.wav,None,1000,24,1036661,339,211.285
I,0,826651,sinestep5.wav,None,1000,24,1038661,349,213.285
I,0,826651,vowelstep5.wav,None,1000,24,1040661,350,215.285
I,0,826651,sinestep7.wav,None,1000,24,1042661,349,217.285
I,0,826651,sinestep5.wav,None,1000,24,1044661,360,219.285
I,0,826651,sinestep3.wav,None,1000,24,1046661,329,221.285
I,0,826651,silence.wav,None,1000,24,1048661,339,223.285
I,0,826651,vowelstep7_catch.wav,1,229,24,1050661,339,225.285
I,0,826651,sinestep7.wav,None,1000,24,1052661,1119,227.285
I,0,826651,sinestep7.wav,None,1000,24,1054661,348,229.285
I,0,826651,sinestep3.wav,None,1000,24,1056661,349,231.285
I,0,826651,vowelstep3.wav,None,1000,24,1058661,348,233.285
I,0,826651,silence.wav,None,1000,24,1060661,328,235.285
I,0,826651,sinestep3.wav,None,1000,24,1062661,338,237.285
I,0,826651,sinestep5.wav,None,1000,24,1064661,337,239.285
I,0,826651,silence.wav,None,1000,24,1066662,338,241.285
I,0,826651,vowelstep3.wav,None,1000,24,1068662,347,243.285
I,0,826651,sinestep1.wav,None,1000,24,1070662,342,245.285
I,0,826651,sinestep1.wav,None,1000,24,1072661,357,247.285
I,0,826651,sinestep7.wav,None,1000,24,1074661,325,249.285
I,0,826651,vowelstep7.wav,None,1000,24,1076661,337,251.285
I,0,826651,vowelstep5.wav,None,1000,24,1078661,337,253.285
I,0,826651,silence.wav,None,1000,24,1080661,346,255.285
I,0,826651,sinestep3.wav,None,1000,24,1082661,347,257.285
I,0,826651,vowelstep1.wav,None,1000,24,1084662,347,259.285
I,0,826651,vowelstep1.wav,None,1000,24,1086662,343,261.285
I,0,826651,silence.wav,None,1000,24,1088662,356,263.285
I,0,826651,vowelstep3.wav,None,1000,24,1090662,327,265.285
I,0,826651,silence.wav,None,1000,24,1092662,337,267.285
I,0,826651,silence.wav,None,1000,24,1094662,334,269.285
I,0,826651,sinestep7.wav,None,1000,24,1096661,346,271.285
I,0,826651,sinestep7.wav,None,1000,24,1098661,346,273.285
I,0,826651,vowelstep5.wav,None,1000,24,1100661,356,275.285
I,0,826651,silence.wav,None,1000,24,1102662,356,277.285
I,0,826651,silence.wav,None,1000,24,1104662,333,279.285
I,0,826651,sinestep1.wav,None,1000,24,1106662,335,281.285
I,0,826651,silence.wav,None,1000,24,1108662,335,283.285
I,0,826651,vowelstep7.wav,None,1000,24,1110662,344,285.285
I,0,826651,vowelstep5_catch.wav,1,285,24,1112662,345,287.285
I,0,826651,sinestep7.wav,None,1000,24,1114662,1059,289.285
I,0,826651,sinestep1.wav,None,1000,24,1116662,355,291.285
I,0,826651,vowelstep3_catch.wav,1,156,24,1118663,334,293.285
I,0,826651,sinestep1.wav,None,1000,24,1120662,1177,295.285
I,0,826651,vowelstep7.wav,None,1000,24,1122662,335,297.285
I,0,826651,sinestep3.wav,None,1000,24,1124662,344,299.285
I,0,826651,vowelstep5.wav,None,1000,24,1126662,344,301.285
I,0,826651,vowelstep1_catch.wav,1,115,24,1128662,344,303.285
I,0,826651,vowelstep7.wav,None,1000,24,1130662,1229,305.285
I,0,826651,vowelstep5.wav,None,1000,24,1132662,334,307.285
I,0,826651,sinestep1_catch.wav,1,180,24,1134662,334,309.285
I,0,826651,silence.wav,None,1000,24,1136663,1149,311.285
I,0,826651,sinestep7.wav,None,1000,24,1138663,343,313.285
I,0,826651,silence.wav,None,1000,24,1140663,341,315.285
I,0,826651,vowelstep1.wav,None,1000,24,1142663,342,317.285
I,0,826651,sinestep7.wav,None,1000,24,1144662,352,319.285
J,1,1208404,sinestep5_catch.wav,1,536,24,1208414,0,1.285
J,1,1208404,sinestep5.wav,None,1000,24,1210414,804,3.285
J,1,1208404,sinestep3.wav,None,1000,24,1212414,339,5.285
J,1,1208404,sinestep1.wav,None,1000,24,1214414,332,7.285
J,1,1208404,sinestep7.wav,None,1000,24,1216414,330,9.285
J,1,1208404,vowelstep3.wav,None,1000,24,1218413,332,11.285
J,1,1208404,sinestep1.wav,None,1000,24,1220413,332,13.285
J,1,1208404,vowelstep5.wav,None,1000,24,1222413,341,15.285
J,1,1208404,vowelstep3.wav,None,1000,24,1224414,342,17.285
J,1,1208404,vowelstep1.wav,None,1000,24,1226414,350,19.285
J,1,1208404,vowelstep1.wav,None,1000,24,1228414,331,21.285
J,1,1208404,sinestep3.wav,None,1000,24,1230414,331,23.285
J,1,1208404,silence.wav,None,1000,24,1232414,332,25.285
J,1,1208404,vowelstep7.wav,None,1000,24,1234414,342,27.285
J,1,1208404,sinestep3.wav,None,1000,24,1236414,341,29.285
J,1,1208404,sinestep7.wav,None,1000,24,1238414,341,31.285
J,1,1208404,silence.wav,None,1000,24,1240414,350,33.285
J,1,1208404,vowelstep5.wav,None,1000,24,1242414,330,35.285
J,1,1208404,sinestep1.wav,None,1000,24,1244414,330,37.285
J,1,1208404,sinestep1_catch.wav,1,142,24,1246414,359,39.285
J,1,1208404,sinestep7.wav,None,1000,24,1248414,1186,41.285
J,1,1208404,vowelstep7.wav,None,1000,24,1250414,340,43.285
J,1,1208404,sinestep3_catch.wav,1,217,24,1252414,340,45.285
J,1,1208404,vowelstep3.wav,None,1000,24,1254414,1133,47.285
J,1,1208404,vowelstep7.wav,None,1000,24,1256414,350,49.285
J,1,1208404,sinestep1.wav,None,1000,24,1258415,349,51.285
J,1,1208404,vowelstep3.wav,None,1000,24,1260415,346,53.285
J,1,1208404,vowelstep1.wav,None,1000,24,1262415,329,55.285
J,1,1208404,sinestep5.wav,None,1000,24,1264415,338,57.285
J,1,1208404,sinestep5_catch.wav,1,94,24,1266414,339,59.285
J,1,1208404,sinestep5.wav,None,1000,24,1268414,1254,61.285
J,1,1208404,vowelstep7.wav,None,1000,24,1270414,348,63.285
J,1,1208404,sinestep7.wav,None,1000,24,1272414,348,65.285
J,1,1208404,vowelstep1.wav,None,1000,24,1274414,349,67.285
J,1,1208404,sinestep7_catch.wav,1,209,24,1276415,355,69.285
J,1,1208404,silence.wav,None,1000,24,1278415,1127,71.285
J,1,1208404,vowelstep5.wav,None,1000,24,1280415,338,73.285
J,1,1208404,sinestep5.wav,None,1000,24,1282415,336,75.285
J,1,1208404,sinestep5.wav,None,1000,24,1284415,348,77.285
J,1,1208404,vowelstep3.wav,None,1000,24,1286415,347,79.285
J,1,1208404,vowelstep5.wav,None,1000,24,1288415,348,81.285
J,1,1208404,sinestep3.wav,None,1000,24,1290414,328,83.285
J,1,1208404,silence.wav,None,1000,24,1292414,338,85.285
J,1,1208404,vowelstep3.wav,None,1000,24,1294415,334,87.285
J,1,1208404,vowelstep7.wav,None,1000,24,1296415,337,89.285
J,1,1208404,silence.wav,None,1000,24,1298415,346,91.285
J,1,1208404,sinestep3.wav,None,1000,24,1300415,347,93.285
J,1,1208404,silence.wav,None,1000,24,1302415,347,95.285
J,1,1208404,sinestep1.wav,None,1000,24,1304415,357,97.285
J,1,1208404,sinestep5_catch.wav,1,214,24,1306415,336,99.285
J,1,1208404,sinestep7.wav,None,1000,24,1308415,1121,101.285
J,1,1208404,sinestep5.wav,None,1000,24,1310415,337,103.285
J,1,1208404,sinestep5.wav,None,1000,24,1312416,342,105.285
J,1,1208404,sinestep3.wav,None,1000,24,1314415,346,107.285
J,1,1208404,sinestep3_catch.wav,1,136,24,1316415,344,109.285
J,1,1208404,sinestep3.wav,None,1000,24,1318415,1189,111.285
J,1,1208404,silence.wav,None,1000,24,1320415,335,113.285
J,1,1208404,sinestep1.wav,None,1000,24,1322415,335,115.285
J,1,1208404,silence.wav,None,1000,24,1324415,332,117.285
J,1,1208404,vowelstep3.wav,None,1000,24,1326415,346,119.285
J,1,1208404,vowelstep5.wav,None,1000,24,1328416,340,121.285
J,1,1208404,vowelstep7.wav,None,1000,24,1330416,345,123.285
J,1,1208404,silence.wav,None,1000,24,1332416,352,125.285
J,1,1208404,sinestep1.wav,None,1000,24,1334416,334,127.285
J,1,1208404,sinestep3.wav,None,1000,24,1336416,334,129.285
J,1,1208404,sinestep7.wav,None,1000,24,1338415,334,131.285
J,1,1208404,silence.wav,None,1000,24,1340415,344,133.285
J,1,1208404,sinestep1.wav,None,1000,24,1342415,344,135.285
J,1,1208404,vowelstep7.wav,None,1000,24,1344415,345,137.285
J,1,1208404,sinestep5.wav,None,1000,24,1346416,354,139.285
J,1,1208404,vowelstep1.wav,None,1000,24,1348416,333,141.285
J,1,1208404,vowelstep7.wav,None,1000,24,1350416,333,143.285
J,1,1208404,vowelstep3.wav,None,1000,24,1352416,333,145.285
J,1,1208404,vowelstep3.wav,None,1000,24,1354416,332,147.285
J,1,1208404,sinestep7.wav,None,1000,24,1356416,341,149.285
J,1,1208404,vowelstep5.wav,None,1000,24,1358416,343,151.285
J,1,1208404,silence.wav,None,1000,24,1360416,353,153.285
J,1,1208404,sinestep1.wav,None,1000,24,1362415,324,155.285
J,1,1208404,sinestep3.wav,None,1000,24,1364416,332,157.285
J,1,1208404,silence.wav,None,1000,24,1366416,331,159.285
J,1,1208404,sinestep1.wav,None,1000,24,1368416,342,161.285
J,1,1208404,vowelstep7.wav,None,1000,24,1370416,342,163.285
J,1,1208404,vowelstep7.wav,None,1000,24,1372416,342,165.285
J,1,1208404,sinestep1_catch.wav,1,164,24,1374416,342,167.285
J,1,1208404,vowelstep1_catch.wav,1,318,24,1376416,1186,169.285
J,1,1208404,vowelstep1.wav,None,1000,24,1378416,1015,171.285
J,1,1208404,vowelstep7.wav,None,1000,24,1380416,331,173.285
J,1,1208404,sinestep1.wav,None,1000,24,1382417,331,175.285
J,1,1208404,vowelstep5.wav,None,1000,24,1384417,340,177.285
J,1,1208404,vowelstep5.wav,None,1000,24,1386417,340,179.285
J,1,1208404,sinestep5.wav,None,1000,24,1388416,347,181.285
J,1,1208404,sinestep7.wav,None,1000,24,1390416,321,183.285
J,1,1208404,sinestep7.wav,None,1000,24,1392416,323,185.285
J,1,1208404,sinestep1.wav,None,1000,24,1394416,331,187.285
J,1,1208404,vowelstep1.wav,None,1000,24,1396416,339,189.285
J,1,1208404,silence.wav,None,1000,24,1398417,341,191.285
J,1,1208404,sinestep5.wav,None,1000,24,1400417,340,193.285
J,1,1208404,vowelstep5.wav,None,1000,24,1402417,340,195.285
J,1,1208404,vowelstep1.wav,None,1000,24,1404417,350,197.285
J,1,1208404,vowelstep1.wav,None,1000,24,1406417,329,199.285
J,1,1208404,sinestep3.wav,None,1000,24,1408417,330,201.285
J,1,1208404,sinestep3.wav,None,1000,24,1410417,330,203.285
J,1,1208404,silence.wav,None,1000,24,1412416,340,205.285
J,1,1208404,sinestep5.wav,None,1000,24,1414416,339,207.285
J,1,1208404,vowelstep1.wav,None,1000,24,1416417,339,209.285
J,1,1208404,vowelstep5.wav,None,1000,24,1418417,348,211.285
J,1,1208404,vowelstep3.wav,None,1000,24,1420417,328,213.285
J,1,1208404,vowelstep3.wav,None,1000,24,1422417,324,215.285
J,1,1208404,silence.wav,None,1000,24,1424417,328,217.285
J,1,1208404,sinestep1.wav,None,1000,24,1426417,337,219.285
J,1,1208404,vowelstep3.wav,None,1000,24,1428417,338,221.285
J,1,1208404,sinestep7.wav,None,1000,24,1430417,339,223.285
J,1,1208404,vowelstep7.wav,None,1000,24,1432417,318,225.285
J,1,1208404,silence.wav,None,1000,24,1434418,329,227.285
J,1,1208404,vowelstep5.wav,None,1000,24,1436417,327,229.285
J,1,1208404,silence.wav,None,1000,24,1438417,328,231.285
J,1,1208404,sinestep3.wav,None,1000,24,1440417,335,233.285
J,1,1208404,vowelstep5.wav,None,1000,24,1442417,338,235.285
J,1,1208404,vowelstep3.wav,None,1000,24,1444417,337,237.285
J,1,1208404,vowelstep5.wav,None,1000,24,1446417,337,239.285
J,1,1208404,vowelstep7.wav,None,1000,24,1448417,328,241.285
J,1,1208404,vowelstep1.wav,None,1000,24,1450417,327,243.285
J,1,1208404,sinestep7.wav,None,1000,24,1452418,327,245.285
J,1,1208404,sinestep7.wav,None,1000,24,1454418,333,247.285
J,1,1208404,silence.wav,None,1000,24,1456418,337,249.285
J,1,1208404,vowelstep1.wav,None,1000,24,1458418,337,251.285
J,1,1208404,vowelstep3_catch.wav,1,130,24,1460417,347,253.285
J,1,1208404,vowelstep1.wav,None,1000,24,1462417,1195,255.285
J,1,1208404,vowelstep5_catch.wav,1,226,24,1464417,327,257.285
J,1,1208404,silence.wav,None,1000,24,1466417,1099,259.285
J,1,1208404,sinestep5.wav,None,1000,24,1468418,333,261.285
J,1,1208404,vowelstep1.wav,None,1000,24,1470418,336,263.285
J,1,1208404,sinestep5.wav,None,1000,24,1472418,334,265.285
J,1,1208404,vowelstep3.wav,None,1000,24,1474418,337,267.285
J,1,1208404,sinestep5.wav,None,1000,24,1476418,325,269.285
J,1,1208404,sinestep7.wav,None,1000,24,1478418,325,271.285
J,1,1208404,silence.wav,None,1000,24,1480418,326,273.285
J,1,1208404,vowelstep7_catch.wav,1,917,24,1482418,335,275.285
J,1,1208404,sinestep3.wav,None,1000,24,1484417,418,277.285
J,1,1208404,vowelstep5.wav,None,1000,24,1486418,332,279.285
J,1,1208404,silence.wav,None,1000,24,1488418,346,281.285
J,1,1208404,silence.wav,None,1000,24,1490418,344,283.285
J,1,1208404,silence.wav,None,1000,24,1492418,345,285.285
J,1,1208404,vowelstep7.wav,None,1000,24,1494418,346,287.285
J,1,1208404,sinestep3.wav,None,1000,24,1496418,335,289.285
J,1,1208404,vowelstep5_catch.wav,1,159,24,1498418,335,291.285
J,1,1208404,silence.wav,None,1000,24,1500418,1171,293.285
J,1,1208404,sinestep7.wav,None,1000,24,1502418,333,295.285
J,1,1208404,vowelstep1.wav,None,1000,24,1504419,345,297.285
J,1,1208404,silence.wav,None,1000,24,1506419,343,299.285
J,1,1208404,sinestep1.wav,None,1000,24,1508418,343,301.285
J,1,1208404,sinestep5.wav,None,1000,24,1510418,354,303.285
J,1,1208404,vowelstep5.wav,None,1000,24,1512418,333,305.285
J,1,1208404,vowelstep3.wav,None,1000,24,1514418,333,307.285
J,1,1208404,sinestep7.wav,None,1000,24,1516418,329,309.285
J,1,1208404,vowelstep7.wav,None,1000,24,1518418,343,311.285
J,1,1208404,vowelstep3_catch.wav,1,404,24,1520418,339,313.285
J,1,1208404,vowelstep1_catch.wav,1,119,24,1522419,938,315.285
J,1,1208404,sinestep3.wav,None,1000,24,1524419,1201,317.285
J,1,1208404,sinestep1.wav,None,1000,24,1526419,333,319.285
D,2,1589950,sinestep5.wav,None,1000,24,1589969,0,1.285
D,2,1589950,vowelstep1_catch.wav,1,175,24,1591953,325,3.285
D,2,1589950,sinestep7.wav,None,1000,24,1593970,1178,5.285
D,2,1589950,vowelstep3.wav,None,1000,24,1595970,334,7.285
D,2,1589950,vowelstep3_catch.wav,1,140,24,1597970,334,9.285
D,2,1589950,vowelstep5_catch.wav,1,184,24,1599953,1173,11.285
D,2,1589950,sinestep7.wav,None,1000,24,1601953,1159,13.285
D,2,1589950,silence.wav,None,1000,24,1603953,344,15.285
D,2,1589950,vowelstep7_catch.wav,1,347,24,1605969,354,17.285
D,2,1589950,vowelstep7.wav,None,1000,24,1607969,987,19.285
D,2,1589950,vowelstep3.wav,None,1000,24,1609954,333,21.285
D,2,1589950,vowelstep7_catch.wav,1,237,24,1611954,333,23.285
D,2,1589950,vowelstep5.wav,None,1000,24,1613970,1096,25.285
D,2,1589950,sinestep7.wav,None,1000,24,1615953,323,27.285
D,2,1589950,silence.wav,None,1000,24,1617953,341,29.285
D,2,1589950,vowelstep1.wav,None,1000,24,1619953,353,31.285
D,2,1589950,vowelstep1.wav,None,1000,24,1621953,353,33.285
D,2,1589950,vowelstep7.wav,None,1000,24,1623970,352,35.285
D,2,1589950,vowelstep3.wav,None,1000,24,1625954,332,37.285
D,2,1589950,sinestep3.wav,None,1000,24,1627954,340,39.285
D,2,1589950,sinestep1.wav,None,1000,24,1629954,343,41.285
D,2,1589950,vowelstep1.wav,None,1000,24,1631954,341,43.285
D,2,1589950,vowelstep1.wav,None,1000,24,1633954,352,45.285
D,2,1589950,sinestep7.wav,None,1000,24,1635954,352,47.285
D,2,1589950,sinestep3.wav,None,1000,24,1637953,347,49.285
D,2,1589950,vowelstep5_catch.wav,1,73,24,1639953,362,51.285
D,2,1589950,sinestep7.wav,None,1000,24,1641970,1262,53.285
D,2,1589950,vowelstep5.wav,None,1000,24,1643954,313,55.285
D,2,1589950,sinestep3.wav,None,1000,24,1645954,336,57.285
D,2,1589950,sinestep7.wav,None,1000,24,1647954,340,59.285
D,2,1589950,vowelstep3.wav,None,1000,24,1649954,349,61.285
D,2,1589950,vowelstep3.wav,None,1000,24,1651954,351,63.285
D,2,1589950,vowelstep3_catch.wav,None,1000,24,1653954,361,65.285
D,2,1589950,silence.wav,None,1000,24,1655954,332,67.285
D,2,1589950,vowelstep7.wav,None,1000,24,1657954,337,69.285
D,2,1589950,silence.wav,None,1000,24,1659970,342,71.285
D,2,1589950,sinestep1.wav,None,1000,24,1661955,316,73.285
D,2,1589950,vowelstep5.wav,None,1000,24,1663954,352,75.285
D,2,1589950,vowelstep1.wav,None,1000,24,1665954,348,77.285
D,2,1589950,sinestep7.wav,None,1000,24,1667954,350,79.285
D,2,1589950,vowelstep1.wav,None,1000,24,1669954,360,81.285
D,2,1589950,sinestep7.wav,None,1000,24,1671954,340,83.285
D,2,1589950,vowelstep7.wav,None,1000,24,1673954,339,85.285
D,2,1589950,vowelstep5.wav,None,1000,24,1675954,339,87.285
D,2,1589950,vowelstep1.wav,None,1000,24,1677954,349,89.285
D,2,1589950,sinestep5.wav,None,1000,24,1679955,350,91.285
D,2,1589950,sinestep5.wav,None,1000,24,1681955,358,93.285
D,2,1589950,vowelstep3.wav,None,1000,24,1683955,329,95.285
D,2,1589950,silence.wav,None,1000,24,1685954,339,97.285
D,2,1589950,sinestep1.wav,None,1000,24,1687954,339,99.285
D,2,1589950,sinestep1.wav,None,1000,24,1689954,345,101.285
D,2,1589950,sinestep3.wav,None,1000,24,1691954,349,103.285
D,2,1589950,vowelstep1.wav,None,1000,24,1693954,347,105.285
D,2,1589950,sinestep7.wav,None,1000,24,1695955,349,107.285
D,2,1589950,vowelstep3.wav,None,1000,24,1697955,338,109.285
D,2,1589950,silence.wav,None,1000,24,1699955,339,111.285
D,2,1589950,vowelstep5.wav,None,1000,24,1701955,338,113.285
D,2,1589950,vowelstep1.wav,None,1000,24,1703955,338,115.285
D,2,1589950,vowelstep1_catch.wav,1,419,24,1705955,321,117.285
D,2,1589950,vowelstep7.wav,None,1000,24,1707955,927,119.285
D,2,1589950,sinestep5.wav,None,1000,24,1709955,347,121.285
D,2,1589950,vowelstep7.wav,None,1000,24,1711954,358,123.285
D,2,1589950,sinestep1.wav,None,1000,24,1713955,336,125.285
D,2,1589950,sinestep1.wav,None,1000,24,1715955,337,127.285
D,2,1589950,vowelstep3.wav,None,1000,24,1717955,337,129.285
D,2,1589950,sinestep1.wav,None,1000,24,1719955,346,131.285
D,2,1589950,silence.wav,None,1000,24,1721955,347,133.285
D,2,1589950,sinestep3.wav,None,1000,24,1723955,347,135.285
D,2,1589950,silence.wav,None,1000,24,1725955,347,137.285
D,2,1589950,vowelstep3.wav,None,1000,24,1727955,337,139.285
D,2,1589950,vowelstep5.wav,None,1000,24,1729955,337,141.285
D,2,1589950,silence.wav,None,1000,24,1731956,337,143.285
D,2,1589950,sinestep5.wav,None,1000,24,1733955,347,145.285
D,2,1589950,sinestep5.wav,None,1000,24,1735955,346,147.285
D,2,1589950,sinestep1.wav,None,1000,24,1737955,342,149.285
D,2,1589950,vowelstep5.wav,None,1000,24,1739955,346,151.285
D,2,1589950,vowelstep5.wav,None,1000,24,1741955,331,153.285
D,2,1589950,sinestep1_catch.wav,1,615,24,1743955,336,155.285
D,2,1589950,sinestep5.wav,None,1000,24,1745955,719,157.285
D,2,1589950,vowelstep3.wav,None,1000,24,1747956,336,159.285
D,2,1589950,vowelstep7.wav,None,1000,24,1749956,345,161.285
D,2,1589950,vowelstep3.wav,None,1000,24,1751956,345,163.285
D,2,1589950,sinestep3.wav,None,1000,24,1753956,354,165.285
D,2,1589950,sinestep1.wav,None,1000,24,1755956,336,167.285
D,2,1589950,silence.wav,None,1000,24,1757956,331,169.285
D,2,1589950,sinestep1.wav,None,1000,24,1759955,337,171.285
D,2,1589950,vowelstep1.wav,None,1000,24,1761955,343,173.285
D,2,1589950,vowelstep3.wav,None,1001,24,1763955,345,175.285
D,2,1589950,silence.wav,None,1000,24,1765956,344,177.285
D,2,1589950,sinestep7.wav,None,1000,24,1767956,354,179.285
D,2,1589950,silence.wav,None,1000,24,1769956,330,181.285
D,2,1589950,vowelstep7.wav,1,792,24,1771956,335,183.285
D,2,1589950,sinestep3.wav,None,1000,24,1773956,538,185.285
D,2,1589950,vowelstep1.wav,None,1000,24,1775956,334,187.285
D,2,1589950,sinestep7.wav,None,1000,24,1777956,344,189.285
D,2,1589950,silence.wav,None,1000,24,1779956,344,191.285
D,2,1589950,sinestep1.wav,None,1000,24,1781956,354,193.285
D,2,1589950,sinestep3.wav,None,1000,24,1783956,354,195.285
D,2,1589950,sinestep5.wav,None,1000,24,1785956,332,197.285
D,2,1589950,vowelstep3.wav,None,1000,24,1787956,333,199.285
D,2,1589950,sinestep5.wav,None,1000,24,1789956,333,201.285
D,2,1589950,sinestep5.wav,None,1000,24,1791956,343,203.285
D,2,1589950,sinestep3.wav,None,1000,24,1793956,343,205.285
D,2,1589950,sinestep3.wav,None,1000,24,1795956,344,207.285
D,2,1589950,sinestep5.wav,None,1000,24,1797956,353,209.285
D,2,1589950,sinestep3_catch.wav,1,185,24,1799956,334,211.285
D,2,1589950,vowelstep7.wav,None,1000,24,1801957,1145,213.285
D,2,1589950,sinestep1.wav,None,1000,24,1803957,338,215.285
D,2,1589950,sinestep7.wav,None,1000,24,1805957,340,217.285
D,2,1589950,vowelstep1.wav,None,1000,24,1807956,342,219.285
D,2,1589950,sinestep5.wav,None,1000,24,1809956,340,221.285
D,2,1589950,silence.wav,None,1000,24,1811956,351,223.285
D,2,1589950,sinestep5_catch.wav,1,192,24,1813956,347,225.285
D,2,1589950,sinestep5.wav,None,1000,24,1815956,1158,227.285
D,2,1589950,silence.wav,None,1000,24,1817957,331,229.285
D,2,1589950,vowelstep7.wav,None,1000,24,1819957,339,231.285
D,2,1589950,sinestep3.wav,None,1000,24,1821957,340,233.285
D,2,1589950,vowelstep5.wav,None,1000,24,1823957,350,235.285
D,2,1589950,vowelstep7.wav,None,1000,24,1825957,349,237.285
D,2,1589950,vowelstep5.wav,None,1000,24,1827957,350,239.285
D,2,1589950,silence.wav,None,1000,24,1829957,349,241.285
D,2,1589950,silence.wav,None,1000,24,1831956,360,243.285
D,2,1589950,silence.wav,None,1000,24,1833956,339,245.285
D,2,1589950,sinestep7.wav,None,1000,24,1835957,340,247.285
D,2,1589950,sinestep5.wav,None,1000,24,1837957,340,249.285
D,2,1589950,sinestep7_catch.wav,1,311,24,1839957,348,251.285
D,2,1589950,vowelstep1.wav,None,1000,24,1841957,1036,253.285
D,2,1589950,vowelstep1.wav,None,1000,24,1843957,348,255.285
D,2,1589950,vowelstep3.wav,None,1000,24,1845957,359,257.285
D,2,1589950,silence.wav,None,1000,24,1847957,338,259.285
D,2,1589950,sinestep5.wav,None,1000,24,1849957,338,261.285
D,2,1589950,vowelstep7.wav,None,1000,24,1851957,334,263.285
D,2,1589950,vowelstep3.wav,None,1000,24,1853958,347,265.285
D,2,1589950,vowelstep7.wav,None,1000,24,1855957,347,267.285
D,2,1589950,vowelstep5.wav,None,1000,24,1857957,347,269.285
D,2,1589950,sinestep1.wav,None,1000,24,1859957,359,271.285
D,2,1589950,sinestep7.wav,None,1000,24,1861957,335,273.285
D,2,1589950,sinestep3.wav,None,1000,24,1863957,338,275.285
D,2,1589950,silence.wav,None,1000,24,1865957,337,277.285
D,2,1589950,sinestep7.wav,None,1000,24,1867957,348,279.285
D,2,1589950,vowelstep5.wav,None,1000,24,1869957,347,281.285
D,2,1589950,sinestep1.wav,None,1000,24,1871958,347,283.285
D,2,1589950,vowelstep1.wav,None,1000,24,1873958,357,285.285
D,2,1589950,sinestep1.wav,None,1000,24,1875958,337,287.285
D,2,1589950,vowelstep5.wav,None,1000,24,1877958,337,289.285
D,2,1589950,silence.wav,None,1000,24,1879957,337,291.285
D,2,1589950,sinestep3.wav,None,1000,24,1881957,336,293.285
D,2,1589950,vowelstep5.wav,None,1000,24,1883957,347,295.285
D,2,1589950,silence.wav,None,1000,24,1885957,346,297.285
D,2,1589950,sinestep3.wav,None,1000,24,1887958,356,299.285
D,2,1589950,vowelstep7.wav,None,1000,24,1889958,326,301.285
D,2,1589950,sinestep7_catch.wav,1,844,24,1891958,336,303.285
D,2,1589950,sinestep5_catch.wav,1,204,24,1893958,492,305.285
D,2,1589950,sinestep3.wav,None,1000,24,1895958,1141,307.285
D,2,1589950,vowelstep5.wav,None,1000,24,1897958,346,309.285
D,2,1589950,silence.wav,None,1000,24,1899958,346,311.285
D,2,1589950,sinestep3_catch.wav,1,185,24,1901958,346,313.285
D,2,1589950,silence.wav,None,1000,24,1903957,1170,315.285
D,2,1589950,vowelstep7.wav,None,1000,24,1905958,332,317.285
D,2,1589950,silence.wav,None,1000,24,1907958,335,319.285
C,3,1969463,sinestep1.wav,None,1000,24,1969475,0,1.285
C,3,1969463,vowelstep1.wav,None,1000,24,1971475,341,3.285
C,3,1969463,sinestep1.wav,None,1000,24,1973475,345,5.285
C,3,1969463,sinestep1.wav,None,1000,24,1975476,320,7.285
C,3,1969463,vowelstep1.wav,None,1000,24,1977476,334,9.285
C,3,1969463,sinestep1.wav,None,1000,24,1979476,333,11.285
C,3,1969463,sinestep7.wav,None,1000,24,1981476,335,13.285
C,3,1969463,vowelstep7.wav,None,1000,24,1983476,344,15.285
C,3,1969463,vowelstep3.wav,None,1000,24,1985476,344,17.285
C,3,1969463,vowelstep5.wav,None,1000,24,1987476,344,19.285
C,3,1969463,silence.wav,None,1000,24,1989476,321,21.285
C,3,1969463,sinestep3.wav,None,1000,24,1991476,333,23.285
C,3,1969463,vowelstep5.wav,None,1000,24,1993477,334,25.285
C,3,1969463,sinestep1.wav,None,1000,24,1995476,334,27.285
C,3,1969463,vowelstep1.wav,None,1000,24,1997476,342,29.285
C,3,1969463,vowelstep7.wav,None,1000,24,1999476,343,31.285
C,3,1969463,vowelstep3.wav,None,1000,24,2001476,343,33.285
C,3,1969463,sinestep1.wav,None,1000,24,2003476,353,35.285
C,3,1969463,sinestep5.wav,None,1000,24,2005476,333,37.285
C,3,1969463,silence.wav,None,1000,24,2007476,333,39.285
C,3,1969463,vowelstep7.wav,None,1000,24,2009476,334,41.285
C,3,1969463,vowelstep5.wav,None,1000,24,2011477,343,43.285
C,3,1969463,sinestep5.wav,None,1000,24,2013477,343,45.285
C,3,1969463,silence.wav,None,1000,24,2015477,342,47.285
C,3,1969463,sinestep5.wav,None,1000,24,2017476,353,49.285
C,3,1969463,sinestep1.wav,None,1000,24,2019476,332,51.285
C,3,1969463,silence.wav,None,1000,24,2021476,332,53.285
C,3,1969463,vowelstep1.wav,None,1000,24,2023476,332,55.285
C,3,1969463,vowelstep1.wav,None,1000,24,2025476,342,57.285
C,3,1969463,sinestep1.wav,None,1000,24,2027476,342,59.285
C,3,1969463,silence.wav,None,1000,24,2029477,341,61.285
C,3,1969463,vowelstep5.wav,None,1000,24,2031477,347,63.285
C,3,1969463,vowelstep3.wav,None,1000,24,2033477,322,65.285
C,3,1969463,vowelstep3.wav,None,1000,24,2035477,330,67.285
C,3,1969463,vowelstep7.wav,None,1000,24,2037477,332,69.285
C,3,1969463,silence.wav,None,1000,24,2039477,329,71.285
C,3,1969463,vowelstep3.wav,None,1000,24,2041476,342,73.285
C,3,1969463,silence.wav,None,1000,24,2043476,341,75.285
C,3,1969463,sinestep5.wav,None,1000,24,2045477,341,77.285
C,3,1969463,vowelstep7.wav,None,1000,24,2047477,351,79.285
C,3,1969463,vowelstep1_catch.wav,1,232,24,2049477,330,81.285
C,3,1969463,vowelstep3.wav,None,1000,24,2051477,1097,83.285
C,3,1969463,sinestep7.wav,None,1000,24,2053477,326,85.285
C,3,1969463,vowelstep3.wav,None,1000,24,2055477,339,87.285
C,3,1969463,sinestep1.wav,None,1000,24,2057477,342,89.285
C,3,1969463,sinestep7.wav,None,1000,24,2059477,349,91.285
C,3,1969463,sinestep7.wav,None,1000,24,2061477,320,93.285
C,3,1969463,sinestep3.wav,None,1000,24,2063478,330,95.285
C,3,1969463,vowelstep3_catch.wav,1,161,24,2065478,328,97.285
C,3,1969463,sinestep5.wav,None,1000,24,2067477,1177,99.285
C,3,1969463,sinestep5.wav,None,1000,24,2069477,339,101.285
C,3,1969463,vowelstep3.wav,None,1000,24,2071477,335,103.285
C,3,1969463,vowelstep5.wav,None,1000,24,2073477,340,105.285
C,3,1969463,sinestep1.wav,None,1000,24,2075477,348,107.285
C,3,1969463,sinestep3.wav,None,1000,24,2077477,330,109.285
C,3,1969463,vowelstep5.wav,None,1000,24,2079477,329,111.285
C,3,1969463,vowelstep7.wav,None,1000,24,2081478,328,113.285
C,3,1969463,vowelstep1.wav,None,1000,24,2083478,338,115.285
C,3,1969463,sinestep7.wav,None,1000,24,2085478,338,117.285
C,3,1969463,sinestep3.wav,None,1000,24,2087478,337,119.285
C,3,1969463,vowelstep1.wav,None,1000,24,2089478,347,121.285
C,3,1969463,vowelstep1.wav,None,1000,24,2091477,327,123.285
C,3,1969463,sinestep3.wav,None,1000,24,2093477,327,125.285
C,3,1969463,silence.wav,None,1000,24,2095477,328,127.285
C,3,1969463,silence.wav,None,1000,24,2097477,337,129.285
C,3,1969463,vowelstep5_catch.wav,1,197,24,2099478,337,131.285
C,3,1969463,vowelstep5.wav,None,1000,24,2101478,1137,133.285
C,3,1969463,silence.wav,None,1000,24,2103478,347,135.285
C,3,1969463,sinestep1.wav,None,1000,24,2105478,326,137.285
C,3,1969463,vowelstep7.wav,None,1000,24,2107478,328,139.285
C,3,1969463,sinestep7.wav,None,1000,24,2109478,325,141.285
C,3,1969463,silence.wav,None,1000,24,2111478,336,143.285
C,3,1969463,silence.wav,None,1000,24,2113478,335,145.285
C,3,1969463,sinestep7.wav,None,1000,24,2115478,334,147.285
C,3,1969463,vowelstep1.wav,None,1000,24,2117478,344,149.285
C,3,1969463,vowelstep5.wav,None,1000,24,2119478,324,151.285
C,3,1969463,vowelstep5.wav,None,1000,24,2121478,324,153.285
C,3,1969463,vowelstep7.wav,None,1000,24,2123478,324,155.285
C,3,1969463,sinestep7.wav,None,1000,24,2125478,324,157.285
C,3,1969463,vowelstep1.wav,None,1000,24,2127478,334,159.285
C,3,1969463,vowelstep3.wav,None,1000,24,2129478,333,161.285
C,3,1969463,sinestep5.wav,None,1000,24,2131478,344,163.285
C,3,1969463,sinestep7.wav,None,1000,24,2133479,323,165.285
C,3,1969463,sinestep1.wav,None,1000,24,2135479,322,167.285
C,3,1969463,sinestep7.wav,None,1000,24,2137479,322,169.285
C,3,1969463,sinestep3.wav,None,1000,24,2139478,333,171.285
C,3,1969463,silence.wav,None,1000,24,2141478,332,173.285
C,3,1969463,vowelstep7.wav,None,1000,24,2143478,332,175.285
C,3,1969463,sinestep7.wav,None,1000,24,2145478,342,177.285
C,3,1969463,sinestep5.wav,None,1000,24,2147478,321,179.285
C,3,1969463,vowelstep7.wav,None,1000,24,2149478,321,181.285
C,3,1969463,vowelstep5.wav,None,1000,24,2151479,318,183.285
C,3,1969463,vowelstep3.wav,None,1000,24,2153479,321,185.285
C,3,1969463,vowelstep7_catch.wav,1,178,24,2155479,332,187.285
C,3,1969463,vowelstep3.wav,None,1000,24,2157479,1155,189.285
C,3,1969463,vowelstep5.wav,None,1000,24,2159479,343,191.285
C,3,1969463,vowelstep7.wav,None,1000,24,2161479,312,193.285
C,3,1969463,vowelstep7_catch.wav,1,179,24,2163478,323,195.285
C,3,1969463,vowelstep5_catch.wav,1,58,24,2165478,1143,197.285
C,3,1969463,sinestep5.wav,None,1000,24,2167478,1271,199.285
C,3,1969463,sinestep3.wav,None,1000,24,2169479,332,201.285
C,3,1969463,vowelstep3_catch.wav,1,161,24,2171479,332,203.285
C,3,1969463,vowelstep1_catch.wav,1,106,24,2173479,1172,205.285
C,3,1969463,vowelstep5.wav,None,1000,24,2175479,1205,207.285
C,3,1969463,vowelstep1.wav,None,1000,24,2177479,324,209.285
C,3,1969463,sinestep1_catch.wav,1,311,24,2179479,323,211.285
C,3,1969463,sinestep3_catch.wav,1,62,24,2181479,1017,213.285
C,3,1969463,sinestep1.wav,None,1000,24,2183479,1269,215.285
C,3,1969463,vowelstep3.wav,None,1000,24,2185480,331,217.285
C,3,1969463,sinestep3.wav,None,1000,24,2187479,282,219.285
C,3,1969463,vowelstep5.wav,None,1000,24,2189479,342,221.285
C,3,1969463,sinestep7.wav,None,1000,24,2191479,321,223.285
C,3,1969463,sinestep1.wav,None,1000,24,2193479,321,225.285
C,3,1969463,sinestep5_catch.wav,1,163,24,2195479,322,227.285
C,3,1969463,vowelstep7.wav,None,1000,24,2197479,1167,229.285
C,3,1969463,vowelstep3.wav,None,1000,24,2199479,331,231.285
C,3,1969463,silence.wav,None,1000,24,2201479,332,233.285
C,3,1969463,vowelstep1.wav,None,1000,24,2203480,312,235.285
C,3,1969463,sinestep5.wav,None,1000,24,2205480,320,237.285
C,3,1969463,sinestep1.wav,None,1000,24,2207480,320,239.285
C,3,1969463,vowelstep7.wav,None,1000,24,2209480,321,241.285
C,3,1969463,sinestep3.wav,None,1000,24,2211480,326,243.285
C,3,1969463,sinestep3.wav,None,1000,24,2213479,330,245.285
C,3,1969463,sinestep5.wav,None,1000,24,2215479,329,247.285
C,3,1969463,vowelstep3.wav,None,1000,24,2217479,340,249.285
C,3,1969463,sinestep3.wav,None,1000,24,2219479,341,251.285
C,3,1969463,silence.wav,None,1000,24,2221480,350,253.285
C,3,1969463,sinestep3.wav,None,1000,24,2223480,350,255.285
C,3,1969463,vowelstep1.wav,None,1000,24,2225480,329,257.285
C,3,1969463,silence.wav,None,1000,24,2227480,329,259.285
C,3,1969463,vowelstep1.wav,None,1000,24,2229480,329,261.285
C,3,1969463,silence.wav,None,1000,24,2231480,250,263.285
C,3,1969463,sinestep7.wav,None,1000,24,2233480,340,265.285
C,3,1969463,sinestep3.wav,None,1000,24,2235479,338,267.285
C,3,1969463,vowelstep1.wav,None,1000,24,2237480,349,269.285
C,3,1969463,sinestep7.wav,None,1000,24,2239480,327,271.285
C,3,1969463,sinestep7_catch.wav,1,162,24,2241480,327,273.285
C,3,1969463,vowelstep5.wav,None,1000,24,2243480,1165,275.285
C,3,1969463,silence.wav,None,1000,24,2245480,329,277.285
C,3,1969463,silence.wav,None,1000,24,2247480,334,279.285
C,3,1969463,sinestep3.wav,None,1000,24,2249480,337,281.285
C,3,1969463,vowelstep7.wav,None,1000,24,2251480,349,283.285
C,3,1969463,sinestep5.wav,None,1000,24,2253480,347,285.285
C,3,1969463,sinestep5.wav,None,1000,24,2255481,327,287.285
C,3,1969463,vowelstep3.wav,None,1000,24,2257481,328,289.285
C,3,1969463,sinestep3.wav,None,1000,24,2259480,327,291.285
C,3,1969463,silence.wav,None,1000,24,2261480,337,293.285
C,3,1969463,silence.wav,None,1000,24,2263480,337,295.285
C,3,1969463,vowelstep7.wav,None,1000,24,2265480,347,297.285
C,3,1969463,silence.wav,None,1000,24,2267480,318,299.285
C,3,1969463,vowelstep5.wav,None,1000,24,2269480,328,301.285
C,3,1969463,sinestep5.wav,None,1000,24,2271480,323,303.285
C,3,1969463,silence.wav,None,1000,24,2273481,337,305.285
C,3,1969463,silence.wav,None,1000,24,2275481,335,307.285
C,3,1969463,silence.wav,None,1000,24,2277481,332,309.285
C,3,1969463,sinestep7_catch.wav,1,225,24,2279481,337,311.285
C,3,1969463,sinestep7.wav,None,1000,24,2281481,1116,313.285
C,3,1969463,sinestep5_catch.wav,1,208,24,2283481,327,315.285
C,3,1969463,sinestep5.wav,None,1000,24,2285480,1116,317.285
C,3,1969463,sinestep3_catch.wav,1,209,24,2287480,336,319.285
B,4,2356486,vowelstep5.wav,None,1000,24,2356498,0,1.285
B,4,2356486,silence.wav,None,1000,24,2358498,323,3.285
B,4,2356486,sinestep7.wav,None,1000,24,2360499,331,5.285
B,4,2356486,vowelstep1_catch.wav,1,226,24,2362499,329,7.285
B,4,2356486,vowelstep7.wav,None,1000,24,2364499,1113,9.285
B,4,2356486,vowelstep3.wav,None,1000,24,2366499,340,11.285
B,4,2356486,vowelstep7.wav,None,1000,24,2368499,339,13.285
B,4,2356486,vowelstep5.wav,None,1000,24,2370499,340,15.285
B,4,2356486,vowelstep7.wav,None,1000,24,2372498,328,17.285
B,4,2356486,vowelstep3.wav,None,1000,24,2374498,328,19.285
B,4,2356486,silence.wav,None,1000,24,2376498,329,21.285
B,4,2356486,silence.wav,None,1000,24,2378499,339,23.285
B,4,2356486,sinestep5.wav,None,1000,24,2380499,339,25.285
B,4,2356486,sinestep1.wav,None,1000,24,2382499,337,27.285
B,4,2356486,vowelstep7.wav,None,1000,24,2384499,338,29.285
B,4,2356486,sinestep5.wav,None,1000,24,2386499,327,31.285
B,4,2356486,vowelstep1.wav,None,1000,24,2388499,327,33.285
B,4,2356486,vowelstep7.wav,None,1000,24,2390499,327,35.285
B,4,2356486,vowelstep3.wav,None,1000,24,2392499,327,37.285
B,4,2356486,sinestep5.wav,None,1000,24,2394499,337,39.285
B,4,2356486,vowelstep1.wav,None,1000,24,2396499,337,41.285
B,4,2356486,sinestep3.wav,None,1000,24,2398499,335,43.285
B,4,2356486,vowelstep5.wav,None,1000,24,2400499,326,45.285
B,4,2356486,vowelstep7.wav,None,1000,24,2402499,327,47.285
B,4,2356486,vowelstep3.wav,None,1000,24,2404499,327,49.285
B,4,2356486,sinestep7.wav,None,1000,24,2406499,327,51.285
B,4,2356486,sinestep3.wav,None,1000,24,2408499,334,53.285
B,4,2356486,sinestep1.wav,None,1000,24,2410499,338,55.285
B,4,2356486,sinestep1.wav,None,1000,24,2412500,342,57.285
B,4,2356486,sinestep5.wav,None,1000,24,2414500,326,59.285
B,4,2356486,vowelstep5.wav,None,1000,24,2416500,325,61.285
B,4,2356486,vowelstep3_catch.wav,1,164,24,2418500,326,63.285
B,4,2356486,vowelstep7.wav,None,1000,24,2420500,1162,65.285
B,4,2356486,sinestep1.wav,None,1000,24,2422499,336,67.285
B,4,2356486,vowelstep5.wav,None,1000,24,2424499,336,69.285
B,4,2356486,vowelstep5_catch.wav,1,180,24,2426499,347,71.285
B,4,2356486,vowelstep7.wav,None,1000,24,2428499,1165,73.285
B,4,2356486,sinestep3.wav,None,1000,24,2430500,327,75.285
B,4,2356486,vowelstep7_catch.wav,1,141,24,2432500,326,77.285
B,4,2356486,sinestep5.wav,None,1000,24,2434500,1183,79.285
B,4,2356486,vowelstep5.wav,None,1000,24,2436500,335,81.285
B,4,2356486,silence.wav,None,1000,24,2438500,334,83.285
B,4,2356486,silence.wav,None,1000,24,2440500,345,85.285
B,4,2356486,vowelstep3.wav,None,1000,24,2442500,345,87.285
B,4,2356486,silence.wav,None,1000,24,2444500,325,89.285
B,4,2356486,sinestep1.wav,None,1000,24,2446499,325,91.285
B,4,2356486,sinestep1.wav,None,1000,24,2448500,334,93.285
B,4,2356486,sinestep5.wav,None,1000,24,2450500,333,95.285
B,4,2356486,vowelstep7.wav,None,1000,24,2452500,332,97.285
B,4,2356486,sinestep5.wav,None,1000,24,2454500,333,99.285
B,4,2356486,sinestep5.wav,None,1000,24,2456500,344,101.285
B,4,2356486,silence.wav,None,1000,24,2458500,323,103.285
B,4,2356486,vowelstep1.wav,None,1000,24,2460500,323,105.285
B,4,2356486,silence.wav,None,1000,24,2462500,324,107.285
B,4,2356486,sinestep1.wav,None,1000,24,2464500,333,109.285
B,4,2356486,vowelstep7.wav,None,1000,24,2466501,332,111.285
B,4,2356486,silence.wav,None,1000,24,2468501,331,113.285
B,4,2356486,sinestep1.wav,None,1000,24,2470500,342,115.285
B,4,2356486,vowelstep3.wav,None,1000,24,2472500,319,117.285
B,4,2356486,vowelstep5.wav,None,1000,24,2474500,322,119.285
B,4,2356486,silence.wav,None,1000,24,2476500,321,121.285
B,4,2356486,sinestep3.wav,None,1000,24,2478500,333,123.285
B,4,2356486,sinestep5.wav,None,1000,24,2480500,332,125.285
B,4,2356486,silence.wav,None,1000,24,2482501,332,127.285
B,4,2356486,vowelstep5.wav,None,1000,24,2484501,332,129.285
B,4,2356486,sinestep3.wav,None,1000,24,2486501,321,131.285
B,4,2356486,sinestep5.wav,None,1000,24,2488501,321,133.285
B,4,2356486,sinestep5.wav,None,1000,24,2490501,321,135.285
B,4,2356486,sinestep7.wav,None,1000,24,2492501,331,137.285
B,4,2356486,sinestep7.wav,None,1000,24,2494500,331,139.285
B,4,2356486,vowelstep5.wav,None,1000,24,2496500,332,141.285
B,4,2356486,sinestep1.wav,None,1000,24,2498500,341,143.285
B,4,2356486,vowelstep7.wav,None,1000,24,2500501,341,145.285
B,4,2356486,sinestep7.wav,None,1000,24,2502501,339,147.285
B,4,2356486,vowelstep5.wav,None,1000,24,2504501,349,149.285
B,4,2356486,vowelstep1.wav,None,1000,24,2506501,329,151.285
B,4,2356486,sinestep3.wav,None,1000,24,2508501,331,153.285
B,4,2356486,silence.wav,None,1000,24,2510501,330,155.285
B,4,2356486,silence.wav,None,1000,24,2512501,340,157.285
B,4,2356486,sinestep7_catch.wav,1,249,24,2514501,340,159.285
B,4,2356486,vowelstep5.wav,None,1000,24,2516501,1090,161.285
B,4,2356486,sinestep7.wav,None,1000,24,2518501,350,163.285
B,4,2356486,vowelstep5.wav,None,1000,24,2520501,329,165.285
B,4,2356486,vowelstep3.wav,None,1000,24,2522501,325,167.285
B,4,2356486,silence.wav,None,1000,24,2524501,329,169.285
B,4,2356486,sinestep3.wav,None,1000,24,2526501,328,171.285
B,4,2356486,sinestep7_catch.wav,1,180,24,2528501,339,173.285
B,4,2356486,sinestep3.wav,None,1000,24,2530501,1159,175.285
B,4,2356486,sinestep5_catch.wav,1,77,24,2532501,338,177.285
B,4,2356486,vowelstep5.wav,None,1000,24,2534501,1241,179.285
B,4,2356486,silence.wav,None,1000,24,2536502,324,181.285
B,4,2356486,sinestep7.wav,None,1000,24,2538502,325,183.285
B,4,2356486,silence.wav,None,1000,24,2540502,338,185.285
B,4,2356486,sinestep3.wav,None,1000,24,2542501,337,187.285
B,4,2356486,silence.wav,None,1000,24,2544501,338,189.285
B,4,2356486,vowelstep7.wav,None,1000,24,2546501,338,191.285
B,4,2356486,vowelstep3.wav,None,1000,24,2548501,347,193.285
B,4,2356486,vowelstep3.wav,None,1000,24,2550501,329,195.285
B,4,2356486,sinestep7.wav,None,1000,24,2552502,327,197.285
B,4,2356486,sinestep7.wav,None,1000,24,2554502,327,199.285
B,4,2356486,sinestep3.wav,None,1000,24,2556502,337,201.285
B,4,2356486,sinestep3_catch.wav,1,190,24,2558502,337,203.285
B,4,2356486,sinestep1.wav,None,1000,24,2560502,1146,205.285
B,4,2356486,sinestep1.wav,None,1000,24,2562502,317,207.285
B,4,2356486,sinestep3.wav,None,1000,24,2564502,327,209.285
B,4,2356486,silence.wav,None,1000,24,2566502,327,211.285
B,4,2356486,silence.wav,None,1000,24,2568501,327,213.285
B,4,2356486,sinestep5_catch.wav,1,252,24,2570502,336,215.285
B,4,2356486,sinestep7.wav,None,1000,24,2572502,1083,217.285
B,4,2356486,sinestep7.wav,None,1000,24,2574502,337,219.285
B,4,2356486,vowelstep3.wav,None,1000,24,2576502,316,221.285
B,4,2356486,sinestep1_catch.wav,1,145,24,2578502,325,223.285
B,4,2356486,vowelstep5.wav,None,1000,24,2580502,1180,225.285
B,4,2356486,sinestep1.wav,None,1000,24,2582502,326,227.285
B,4,2356486,vowelstep1.wav,None,1000,24,2584502,336,229.285
B,4,2356486,vowelstep1.wav,None,1000,24,2586502,335,231.285
B,4,2356486,sinestep5.wav,None,1000,24,2588503,335,233.285
B,4,2356486,silence.wav,None,1000,24,2590502,345,235.285
B,4,2356486,silence.wav,None,1000,24,2592502,325,237.285
B,4,2356486,vowelstep1.wav,None,1000,24,2594502,325,239.285
B,4,2356486,vowelstep1.wav,None,1000,24,2596502,325,241.285
B,4,2356486,silence.wav,None,1000,24,2598502,334,243.285
B,4,2356486,vowelstep1_catch.wav,1,211,24,2600502,334,245.285
B,4,2356486,sinestep7.wav,None,1000,24,2602502,1119,247.285
B,4,2356486,sinestep1.wav,None,1000,24,2604502,345,249.285
B,4,2356486,vowelstep1.wav,None,1000,24,2606503,312,251.285
B,4,2356486,vowelstep3.wav,None,1000,24,2608503,324,253.285
B,4,2356486,sinestep3.wav,None,1000,24,2610503,324,255.285
B,4,2356486,silence.wav,None,1000,24,2612503,333,257.285
B,4,2356486,vowelstep3.wav,None,1000,24,2614503,334,259.285
B,4,2356486,silence.wav,None,1000,24,2616502,334,261.285
B,4,2356486,vowelstep3.wav,None,1000,24,2618502,343,263.285
B,4,2356486,sinestep5.wav,None,1000,24,2620502,325,265.285
B,4,2356486,vowelstep3_catch.wav,1,238,24,2622503,323,267.285
B,4,2356486,sinestep3.wav,None,1000,24,2624503,1085,269.285
B,4,2356486,sinestep1.wav,None,1000,24,2626503,323,271.285
B,4,2356486,vowelstep3.wav,None,1000,24,2628503,332,273.285
B,4,2356486,vowelstep1.wav,None,1000,24,2630503,333,275.285
B,4,2356486,vowelstep5_catch.wav,1,160,24,2632503,342,277.285
B,4,2356486,vowelstep1.wav,None,1000,24,2634503,1152,279.285
B,4,2356486,vowelstep5.wav,None,1000,24,2636503,322,281.285
B,4,2356486,sinestep7.wav,None,1000,24,2638503,322,283.285
B,4,2356486,vowelstep7.wav,None,1000,24,2640503,333,285.285
B,4,2356486,vowelstep1_catch.wav,1,127,24,2642503,328,287.285
B,4,2356486,sinestep1.wav,None,1000,24,2644503,1202,289.285
B,4,2356486,vowelstep1.wav,None,1000,24,2646503,333,291.285
B,4,2356486,sinestep5.wav,None,1000,24,2648503,341,293.285
B,4,2356486,vowelstep7.wav,None,1000,24,2650503,321,295.285
B,4,2356486,sinestep7.wav,None,1000,24,2652503,320,297.285
B,4,2356486,vowelstep7_catch.wav,1,142,24,2654503,331,299.285
B,4,2356486,sinestep3.wav,None,1000,24,2656503,1189,301.285
B,4,2356486,vowelstep3.wav,None,1000,24,2658504,332,303.285
B,4,2356486,sinestep5.wav,None,1000,24,2660504,331,305.285
B,4,2356486,vowelstep1.wav,None,1000,24,2662504,341,307.285
B,4,2356486,vowelstep7.wav,None,1000,24,2664503,320,309.285
B,4,2356486,vowelstep1.wav,None,1000,24,2666503,320,311.285
B,4,2356486,sinestep7.wav,None,1000,24,2668503,320,313.285
B,4,2356486,sinestep3.wav,None,1000,24,2670503,331,315.285
B,4,2356486,silence.wav,None,1000,24,2672503,331,317.285
B,4,2356486,vowelstep1.wav,None,1000,24,2674503,330,319.285
E,5,2739949,vowelstep7.wav,None,1000,24,2739954,0,1.285
E,5,2739949,sinestep3.wav,None,1000,24,2741954,349,3.285
E,5,2739949,sinestep5.wav,None,1000,24,2743954,349,5.285
E,5,2739949,sinestep1.wav,None,1000,24,2745955,349,7.285
E,5,2739949,sinestep5.wav,None,1000,24,2747955,358,9.285
E,5,2739949,silence.wav,None,1000,24,2749955,338,11.285
E,5,2739949,vowelstep1.wav,None,1000,24,2751955,338,13.285
E,5,2739949,vowelstep7.wav,None,1000,24,2753955,338,15.285
E,5,2739949,vowelstep1.wav,None,1000,24,2755955,348,17.285
E,5,2739949,sinestep1_catch.wav,1,291,24,2757955,348,19.285
E,5,2739949,vowelstep5.wav,None,1000,24,2759955,905,21.285
E,5,2739949,sinestep5.wav,None,1000,24,2761955,328,23.285
E,5,2739949,vowelstep5.wav,None,1000,24,2763955,356,25.285
E,5,2739949,vowelstep3.wav,None,1000,24,2765955,337,27.285
E,5,2739949,sinestep1.wav,None,1000,24,2767955,338,29.285
E,5,2739949,vowelstep5.wav,None,1000,24,2769955,337,31.285
E,5,2739949,silence.wav,None,1000,24,2771955,347,33.285
E,5,2739949,silence.wav,None,1000,24,2773955,348,35.285
E,5,2739949,sinestep3.wav,None,1000,24,2775955,357,37.285
E,5,2739949,sinestep3.wav,None,1000,24,2777955,328,39.285
E,5,2739949,sinestep3.wav,None,1000,24,2779956,336,41.285
E,5,2739949,sinestep1.wav,None,1000,24,2781956,337,43.285
E,5,2739949,vowelstep1.wav,None,1000,24,2783956,346,45.285
E,5,2739949,sinestep1.wav,None,1000,24,2785955,347,47.285
E,5,2739949,vowelstep7.wav,None,1000,24,2787955,346,49.285
E,5,2739949,vowelstep5.wav,None,1000,24,2789955,346,51.285
E,5,2739949,sinestep7.wav,None,1000,24,2791955,335,53.285
E,5,2739949,sinestep1.wav,None,1000,24,2793955,331,55.285
E,5,2739949,vowelstep5.wav,None,1000,24,2795955,336,57.285
E,5,2739949,sinestep3.wav,None,1000,24,2797956,345,59.285
E,5,2739949,vowelstep1.wav,None,1000,24,2799956,345,61.285
E,5,2739949,vowelstep5.wav,None,1000,24,2801956,344,63.285
E,5,2739949,vowelstep3.wav,None,1000,24,2803956,355,65.285
E,5,2739949,sinestep1.wav,None,1000,24,2805956,325,67.285
E,5,2739949,vowelstep3.wav,None,1000,24,2807956,335,69.285
E,5,2739949,silence.wav,None,1000,24,2809955,335,71.285
E,5,2739949,vowelstep3.wav,None,1000,24,2811955,345,73.285
E,5,2739949,sinestep3_catch.wav,1,214,24,2813955,346,75.285
E,5,2739949,sinestep3.wav,None,1000,24,2815956,1130,77.285
E,5,2739949,vowelstep3.wav,None,1000,24,2817956,344,79.285
E,5,2739949,vowelstep7.wav,None,1000,24,2819956,354,81.285
E,5,2739949,silence.wav,None,1000,24,2821956,334,83.285
E,5,2739949,sinestep3.wav,None,1000,24,2823956,333,85.285
E,5,2739949,silence.wav,None,1000,24,2825956,334,87.285
E,5,2739949,sinestep1.wav,None,1000,24,2827956,259,89.285
E,5,2739949,sinestep5_catch.wav,1,168,24,2829956,344,91.285
E,5,2739949,vowelstep3.wav,None,1000,24,2831957,1175,93.285
E,5,2739949,sinestep5.wav,None,1000,24,2833956,352,95.285
E,5,2739949,vowelstep7.wav,None,1000,24,2835956,333,97.285
E,5,2739949,sinestep1.wav,None,1000,24,2837956,331,99.285
E,5,2739949,sinestep5.wav,None,1000,24,2839956,333,101.285
E,5,2739949,sinestep5.wav,None,1000,24,2841956,343,103.285
E,5,2739949,vowelstep7.wav,None,1000,24,2843956,342,105.285
E,5,2739949,vowelstep3.wav,None,1000,24,2845956,344,107.285
E,5,2739949,vowelstep7.wav,None,1000,24,2847956,323,109.285
E,5,2739949,sinestep5.wav,None,1000,24,2849957,333,111.285
E,5,2739949,vowelstep3.wav,None,1000,24,2851957,332,113.285
E,5,2739949,vowelstep7.wav,None,1000,24,2853957,332,115.285
E,5,2739949,sinestep3.wav,None,1000,24,2855957,338,117.285
E,5,2739949,vowelstep7.wav,None,1000,24,2857956,343,119.285
E,5,2739949,silence.wav,None,1000,24,2859956,341,121.285
E,5,2739949,silence.wav,None,1000,24,2861956,352,123.285
E,5,2739949,sinestep7.wav,None,1000,24,2863956,333,125.285
E,5,2739949,sinestep7_catch.wav,1,190,24,2865956,332,127.285
E,5,2739949,sinestep7.wav,None,1000,24,2867957,1141,129.285
E,5,2739949,silence.wav,None,1000,24,2869957,339,131.285
E,5,2739949,sinestep7_catch.wav,1,293,24,2871957,340,133.285
E,5,2739949,sinestep7.wav,None,1000,24,2873957,1044,135.285
E,5,2739949,sinestep5_catch.wav,1,150,24,2875957,352,137.285
E,5,2739949,sinestep1.wav,None,1000,24,2877957,1179,139.285
E,5,2739949,sinestep1.wav,None,1000,24,2879957,331,141.285
E,5,2739949,sinestep1.wav,None,1000,24,2881956,331,143.285
E,5,2739949,sinestep3.wav,None,1000,24,2883956,341,145.285
E,5,2739949,vowelstep5.wav,None,1000,24,2885957,340,147.285
E,5,2739949,silence.wav,None,1000,24,2887957,340,149.285
E,5,2739949,sinestep3_catch.wav,1,238,24,2889957,350,151.285
E,5,2739949,silence.wav,None,1000,24,2891957,1091,153.285
E,5,2739949,sinestep7.wav,None,1000,24,2893957,330,155.285
E,5,2739949,sinestep5.wav,None,1000,24,2895957,330,157.285
E,5,2739949,silence.wav,None,1000,24,2897957,340,159.285
E,5,2739949,vowelstep5.wav,None,1000,24,2899957,340,161.285
E,5,2739949,vowelstep1.wav,None,1000,24,2901958,340,163.285
E,5,2739949,vowelstep3.wav,None,1000,24,2903958,349,165.285
E,5,2739949,sinestep5.wav,None,1000,24,2905957,349,167.285
E,5,2739949,sinestep7.wav,None,1000,24,2907957,329,169.285
E,5,2739949,vowelstep1.wav,None,1000,24,2909957,329,171.285
E,5,2739949,vowelstep7.wav,None,1000,24,2911957,340,173.285
E,5,2739949,sinestep3.wav,None,1000,24,2913957,339,175.285
E,5,2739949,silence.wav,None,1000,24,2915957,339,177.285
E,5,2739949,sinestep1_catch.wav,1,254,24,2917957,339,179.285
E,5,2739949,sinestep7.wav,None,1000,24,2919958,1061,181.285
E,5,2739949,vowelstep1.wav,None,1000,24,2921958,327,183.285
E,5,2739949,sinestep5.wav,None,1000,24,2923958,327,185.285
E,5,2739949,sinestep5.wav,None,1000,24,2925958,328,187.285
E,5,2739949,vowelstep1.wav,None,1000,24,2927958,338,189.285
E,5,2739949,sinestep7.wav,None,1000,24,2929957,333,191.285
E,5,2739949,sinestep3.wav,None,1000,24,2931957,338,193.285
E,5,2739949,sinestep7.wav,None,1000,24,2933957,348,195.285
E,5,2739949,silence.wav,None,1000,24,2935957,328,197.285
E,5,2739949,vowelstep1.wav,None,1000,24,2937958,327,199.285
E,5,2739949,sinestep1.wav,None,1000,24,2939958,327,201.285
E,5,2739949,vowelstep1.wav,None,1000,24,2941958,337,203.285
E,5,2739949,vowelstep1.wav,None,1000,24,2943958,337,205.285
E,5,2739949,vowelstep1_catch.wav,1,212,24,2945958,336,207.285
E,5,2739949,vowelstep1.wav,None,1000,24,2947958,1094,209.285
E,5,2739949,vowelstep1.wav,None,1000,24,2949958,326,211.285
E,5,2739949,silence.wav,None,1000,24,2951958,327,213.285
E,5,2739949,sinestep7.wav,None,1000,24,2953957,327,215.285
E,5,2739949,vowelstep7.wav,None,1000,24,2955958,336,217.285
E,5,2739949,vowelstep3_catch.wav,1,262,24,2957958,336,219.285
E,5,2739949,vowelstep5.wav,None,1000,24,2959958,1073,221.285
E,5,2739949,sinestep3.wav,None,1000,24,2961958,345,223.285
E,5,2739949,silence.wav,None,1000,24,2963958,326,225.285
E,5,2739949,sinestep1.wav,None,1000,24,2965958,326,227.285
E,5,2739949,sinestep5.wav,None,1000,24,2967958,326,229.285
E,5,2739949,sinestep5.wav,None,1000,24,2969958,335,231.285
E,5,2739949,sinestep3.wav,None,1000,24,2971959,335,233.285
E,5,2739949,sinestep5.wav,None,1000,24,2973959,345,235.285
E,5,2739949,vowelstep3.wav,None,1000,24,2975959,345,237.285
E,5,2739949,sinestep7.wav,None,1000,24,2977958,325,239.285
E,5,2739949,sinestep7.wav,None,1000,24,2979958,325,241.285
E,5,2739949,silence.wav,None,1000,24,2981958,354,243.285
E,5,2739949,sinestep3.wav,None,1000,24,2983958,335,245.285
E,5,2739949,sinestep3.wav,None,1000,24,2985958,334,247.285
E,5,2739949,vowelstep3.wav,None,1000,24,2987958,335,249.285
E,5,2739949,silence.wav,None,1000,24,2989959,345,251.285
E,5,2739949,sinestep7.wav,None,1000,24,2991959,343,253.285
E,5,2739949,silence.wav,None,1000,24,2993959,324,255.285
E,5,2739949,vowelstep7.wav,None,1000,24,2995959,354,257.285
E,5,2739949,vowelstep3.wav,None,1000,24,2997959,353,259.285
E,5,2739949,silence.wav,None,1000,24,2999959,334,261.285
E,5,2739949,vowelstep3.wav,None,1000,24,3001959,334,263.285
E,5,2739949,vowelstep1.wav,None,1000,24,3003958,340,265.285
E,5,2739949,vowelstep5.wav,None,1000,24,3005958,345,267.285
E,5,2739949,silence.wav,None,1000,24,3007959,342,269.285
E,5,2739949,vowelstep3.wav,None,1000,24,3009959,343,271.285
E,5,2739949,sinestep1.wav,None,1000,24,3011959,323,273.285
E,5,2739949,vowelstep5_catch.wav,1,319,24,3013959,333,275.285
E,5,2739949,sinestep7.wav,None,1000,24,3015959,1009,277.285
E,5,2739949,sinestep7.wav,None,1000,24,3017959,343,279.285
E,5,2739949,vowelstep7.wav,None,1000,24,3019959,341,281.285
E,5,2739949,silence.wav,None,1000,24,3021959,343,283.285
E,5,2739949,sinestep5.wav,None,1000,24,3023959,343,285.285
E,5,2739949,silence.wav,None,1000,24,3025960,331,287.285
E,5,2739949,silence.wav,None,1000,24,3027959,331,289.285
E,5,2739949,vowelstep5.wav,None,1000,24,3029959,331,291.285
E,5,2739949,vowelstep5.wav,None,1000,24,3031959,332,293.285
E,5,2739949,silence.wav,None,1000,24,3033959,342,295.285
E,5,2739949,vowelstep5.wav,None,1000,24,3035959,341,297.285
E,5,2739949,vowelstep7_catch.wav,1,312,24,3037959,342,299.285
E,5,2739949,vowelstep7_catch.wav,1,131,24,3039959,1019,301.285
E,5,2739949,vowelstep5.wav,None,1000,24,3041960,1200,303.285
E,5,2739949,sinestep1.wav,None,1000,24,3043960,330,305.285
E,5,2739949,vowelstep3.wav,None,1000,24,3045960,340,307.285
E,5,2739949,vowelstep5_catch.wav,1,207,24,3047960,340,309.285
E,5,2739949,vowelstep7.wav,None,1000,24,3049960,1132,311.285
E,5,2739949,vowelstep5.wav,None,1000,24,3051959,340,313.285
E,5,2739949,vowelstep7.wav,None,1000,24,3053959,330,315.285
E,5,2739949,vowelstep1.wav,None,1000,24,3055959,331,317.285
E,5,2739949,vowelstep3_catch.wav,1,115,24,3057959,330,319.285
G,6,3116117,vowelstep3.wav,None,1000,24,3116128,0,1.285
G,6,3116117,vowelstep3.wav,None,1000,24,3118127,333,3.285
G,6,3116117,vowelstep7.wav,None,1000,24,3120127,314,5.285
G,6,3116117,vowelstep3.wav,None,1000,24,3122127,324,7.285
G,6,3116117,sinestep5.wav,None,1000,24,3124127,324,9.285
G,6,3116117,sinestep1_catch.wav,1,248,24,3126127,325,11.285
G,6,3116117,silence.wav,None,1000,24,3128127,1085,13.285
G,6,3116117,silence.wav,None,1000,24,3130128,334,15.285
G,6,3116117,vowelstep7.wav,None,1000,24,3132128,333,17.285
G,6,3116117,vowelstep1.wav,None,1000,24,3134128,343,19.285
G,6,3116117,silence.wav,None,1000,24,3136128,323,21.285
G,6,3116117,sinestep1.wav,None,1000,24,3138128,319,23.285
G,6,3116117,vowelstep7.wav,None,1000,24,3140127,324,25.285
G,6,3116117,sinestep5.wav,None,1000,24,3142127,333,27.285
G,6,3116117,sinestep5.wav,None,1000,24,3144127,335,29.285
G,6,3116117,sinestep3.wav,None,1000,24,3146127,334,31.285
G,6,3116117,vowelstep3.wav,None,1000,24,3148128,343,33.285
G,6,3116117,silence.wav,None,1000,24,3150128,343,35.285
G,6,3116117,vowelstep1.wav,None,1000,24,3152128,342,37.285
G,6,3116117,sinestep7.wav,None,1000,24,3154128,353,39.285
G,6,3116117,vowelstep5.wav,None,1000,24,3156128,333,41.285
G,6,3116117,vowelstep3.wav,None,1000,24,3158128,333,43.285
G,6,3116117,sinestep1.wav,None,1000,24,3160128,332,45.285
G,6,3116117,sinestep7.wav,None,1000,24,3162128,343,47.285
G,6,3116117,sinestep1.wav,None,1000,24,3164128,323,49.285
G,6,3116117,sinestep5.wav,None,1000,24,3166128,342,51.285
G,6,3116117,vowelstep1.wav,None,1000,24,3168128,352,53.285
G,6,3116117,silence.wav,None,1000,24,3170128,351,55.285
G,6,3116117,sinestep5.wav,None,1000,24,3172128,332,57.285
G,6,3116117,vowelstep1.wav,None,1000,24,3174128,332,59.285
G,6,3116117,vowelstep3.wav,None,1000,24,3176128,332,61.285
G,6,3116117,sinestep3.wav,None,1000,24,3178128,342,63.285
G,6,3116117,sinestep1.wav,None,1000,24,3180128,343,65.285
G,6,3116117,vowelstep5.wav,None,1000,24,3182129,351,67.285
G,6,3116117,vowelstep3.wav,None,1000,24,3184129,321,69.285
G,6,3116117,vowelstep5.wav,None,1000,24,3186129,326,71.285
G,6,3116117,vowelstep7.wav,None,1000,24,3188129,331,73.285
G,6,3116117,vowelstep5.wav,None,1000,24,3190128,339,75.285
G,6,3116117,vowelstep5.wav,None,1000,24,3192128,340,77.285
G,6,3116117,sinestep3.wav,None,1000,24,3194128,340,79.285
G,6,3116117,sinestep3_catch.wav,1,269,24,3196128,341,81.285
G,6,3116117,sinestep5_catch.wav,1,126,24,3198128,1061,83.285
G,6,3116117,sinestep7.wav,None,1000,24,3200129,1204,85.285
G,6,3116117,sinestep7_catch.wav,1,166,24,3202129,326,87.285
G,6,3116117,sinestep7.wav,None,1000,24,3204129,1164,89.285
G,6,3116117,vowelstep1.wav,None,1000,24,3206129,340,91.285
G,6,3116117,vowelstep7.wav,None,1000,24,3208129,339,93.285
G,6,3116117,vowelstep3.wav,None,1000,24,3210129,349,95.285
G,6,3116117,sinestep3.wav,None,1000,24,3212129,319,97.285
G,6,3116117,sinestep1.wav,None,1000,24,3214128,330,99.285
G,6,3116117,sinestep1.wav,None,1000,24,3216128,330,101.285
G,6,3116117,sinestep5.wav,None,1000,24,3218129,335,103.285
G,6,3116117,vowelstep7.wav,None,1000,24,3220129,340,105.285
G,6,3116117,silence.wav,None,1000,24,3222129,338,107.285
G,6,3116117,sinestep3.wav,None,1000,24,3224129,338,109.285
G,6,3116117,vowelstep1.wav,None,1000,24,3226129,348,111.285
G,6,3116117,sinestep3.wav,None,1000,24,3228129,328,113.285
G,6,3116117,sinestep3.wav,None,1000,24,3230129,328,115.285
G,6,3116117,sinestep7.wav,None,1000,24,3232129,325,117.285
G,6,3116117,silence.wav,None,1000,24,3234130,338,119.285
G,6,3116117,vowelstep5.wav,None,1000,24,3236130,336,121.285
G,6,3116117,sinestep1_catch.wav,1,208,24,3238129,337,123.285
G,6,3116117,silence.wav,None,1000,24,3240129,1139,125.285
G,6,3116117,sinestep5.wav,None,1000,24,3242129,327,127.285
G,6,3116117,sinestep7.wav,None,1000,24,3244129,327,129.285
G,6,3116117,sinestep3.wav,None,1000,24,3246129,327,131.285
G,6,3116117,sinestep3.wav,None,1000,24,3248129,337,133.285
G,6,3116117,vowelstep5.wav,None,1000,24,3250129,334,135.285
G,6,3116117,sinestep3.wav,None,1000,24,3252130,338,137.285
G,6,3116117,sinestep3_catch.wav,1,166,24,3254130,345,139.285
G,6,3116117,vowelstep1.wav,None,1000,24,3256130,1150,141.285
G,6,3116117,vowelstep1.wav,None,1000,24,3258130,326,143.285
G,6,3116117,sinestep5.wav,None,1000,24,3260130,326,145.285
G,6,3116117,silence.wav,None,1000,24,3262129,336,147.285
G,6,3116117,sinestep3.wav,None,1000,24,3264129,336,149.285
G,6,3116117,silence.wav,None,1000,24,3266129,332,151.285
G,6,3116117,vowelstep3.wav,None,1000,24,3268129,336,153.285
G,6,3116117,sinestep5.wav,None,1000,24,3270130,324,155.285
G,6,3116117,vowelstep7.wav,None,1000,24,3272130,326,157.285
G,6,3116117,silence.wav,None,1000,24,3274130,326,159.285
G,6,3116117,sinestep5_catch.wav,1,133,24,3276130,325,161.285
G,6,3116117,vowelstep5.wav,None,1000,24,3278130,1202,163.285
G,6,3116117,silence.wav,None,1000,24,3280130,335,165.285
G,6,3116117,vowelstep7.wav,None,1000,24,3282130,315,167.285
G,6,3116117,vowelstep1.wav,None,1000,24,3284130,325,169.285
G,6,3116117,vowelstep1.wav,None,1000,24,3286129,325,171.285
G,6,3116117,vowelstep1.wav,None,1000,24,3288130,324,173.285
G,6,3116117,sinestep5.wav,None,1000,24,3290130,334,175.285
G,6,3116117,vowelstep3.wav,None,1000,24,3292130,334,177.285
G,6,3116117,sinestep1.wav,None,1000,24,3294130,334,179.285
G,6,3116117,vowelstep1.wav,None,1000,24,3296130,334,181.285
G,6,3116117,sinestep1.wav,None,1000,24,3298130,324,183.285
G,6,3116117,sinestep7.wav,None,1000,24,3300130,324,185.285
G,6,3116117,sinestep7.wav,None,1000,24,3302130,325,187.285
G,6,3116117,sinestep3.wav,None,1000,24,3304131,324,189.285
G,6,3116117,sinestep5.wav,None,1000,24,3306131,333,191.285
G,6,3116117,silence.wav,None,1000,24,3308131,333,193.285
G,6,3116117,sinestep7_catch.wav,1,221,24,3310130,343,195.285
G,6,3116117,vowelstep7_catch.wav,1,310,24,3312130,1117,197.285
G,6,3116117,sinestep7.wav,None,1000,24,3314130,1013,199.285
G,6,3116117,silence.wav,None,1000,24,3316130,322,201.285
G,6,3116117,sinestep7.wav,None,1000,24,3318130,323,203.285
G,6,3116117,sinestep3.wav,None,1000,24,3320130,333,205.285
G,6,3116117,vowelstep7.wav,None,1000,24,3322131,333,207.285
G,6,3116117,sinestep1.wav,None,1000,24,3324131,333,209.285
G,6,3116117,silence.wav,None,1000,24,3326131,312,211.285
G,6,3116117,silence.wav,None,1000,24,3328131,319,213.285
G,6,3116117,vowelstep7.wav,None,1000,24,3330131,322,215.285
G,6,3116117,vowelstep5.wav,None,1000,24,3332131,321,217.285
G,6,3116117,sinestep7.wav,None,1000,24,3334130,332,219.285
G,6,3116117,vowelstep5.wav,None,1000,24,3336130,332,221.285
G,6,3116117,vowelstep5_catch.wav,1,243,24,3338130,332,223.285
G,6,3116117,vowelstep7.wav,None,1000,24,3340131,1097,225.285
G,6,3116117,silence.wav,None,1000,24,3342131,321,227.285
G,6,3116117,silence.wav,None,1000,24,3344131,314,229.285
G,6,3116117,sinestep1.wav,None,1000,24,3346131,318,231.285
G,6,3116117,silence.wav,None,1000,24,3348131,330,233.285
G,6,3116117,vowelstep7.wav,None,1000,24,3350131,243,235.285
G,6,3116117,vowelstep5.wav,None,1000,24,3352131,340,237.285
G,6,3116117,vowelstep3.wav,None,1000,24,3354131,311,239.285
G,6,3116117,vowelstep3_catch.wav,1,217,24,3356131,319,241.285
G,6,3116117,sinestep1.wav,None,1000,24,3358132,1101,243.285
G,6,3116117,silence.wav,None,1000,24,3360131,320,245.285
G,6,3116117,sinestep7.wav,None,1000,24,3362131,330,247.285
G,6,3116117,sinestep1.wav,None,1000,24,3364131,330,249.285
G,6,3116117,sinestep3.wav,None,1000,24,3366131,330,251.285
G,6,3116117,vowelstep3.wav,None,1000,24,3368131,340,253.285
G,6,3116117,vowelstep1_catch.wav,1,133,24,3370131,320,255.285
G,6,3116117,sinestep7.wav,None,1000,24,3372131,1186,257.285
G,6,3116117,silence.wav,None,1000,24,3374132,320,259.285
G,6,3116117,sinestep5.wav,None,1000,24,3376132,328,261.285
G,6,3116117,sinestep5.wav,None,1000,24,3378132,329,263.285
G,6,3116117,vowelstep5.wav,None,1000,24,3380132,329,265.285
G,6,3116117,sinestep5.wav,None,1000,24,3382131,338,267.285
G,6,3116117,sinestep7.wav,None,1000,24,3384131,319,269.285
G,6,3116117,silence.wav,None,1000,24,3386131,339,271.285
G,6,3116117,vowelstep7_catch.wav,1,231,24,3388131,348,273.285
G,6,3116117,vowelstep5.wav,None,1000,24,3390131,1097,275.285
G,6,3116117,silence.wav,None,1000,24,3392132,328,277.285
G,6,3116117,sinestep3.wav,None,1000,24,3394132,325,279.285
G,6,3116117,vowelstep5.wav,None,1000,24,3396132,338,281.285
G,6,3116117,silence.wav,None,1000,24,3398132,338,283.285
G,6,3116117,vowelstep1.wav,None,1000,24,3400132,338,285.285
G,6,3116117,sinestep1.wav,None,1000,24,3402132,347,287.285
G,6,3116117,vowelstep3.wav,None,1000,24,3404132,328,289.285
G,6,3116117,vowelstep7.wav,None,1000,24,3406132,328,291.285
G,6,3116117,vowelstep7.wav,None,1000,24,3408131,327,293.285
G,6,3116117,sinestep1.wav,None,1000,24,3410132,328,295.285
G,6,3116117,vowelstep5.wav,None,1000,24,3412132,337,297.285
G,6,3116117,silence.wav,None,1000,24,3414132,336,299.285
G,6,3116117,sinestep1.wav,None,1000,24,3416132,347,301.285
G,6,3116117,vowelstep7.wav,None,1000,24,3418132,326,303.285
G,6,3116117,vowelstep5_catch.wav,1,217,24,3420132,327,305.285
G,6,3116117,vowelstep3.wav,None,1000,24,3422132,1110,307.285
G,6,3116117,vowelstep3_catch.wav,1,370,24,3424132,337,309.285
G,6,3116117,sinestep7.wav,None,1000,24,3426132,966,311.285
G,6,3116117,sinestep5.wav,None,1000,24,3428133,332,313.285
G,6,3116117,vowelstep1.wav,None,1000,24,3430133,336,315.285
G,6,3116117,vowelstep3.wav,None,1000,24,3432132,324,317.285
G,6,3116117,vowelstep1.wav,None,1000,24,3434132,325,319.285
A,7,3491795,sinestep5_catch.wav,1,420,24,3491800,0,1.285
A,7,3491795,vowelstep1.wav,None,1000,24,3493800,910,3.285
A,7,3491795,vowelstep3.wav,None,1000,24,3495799,330,5.285
A,7,3491795,sinestep1.wav,None,1000,24,3497800,341,7.285
A,7,3491795,sinestep5_catch.wav,1,186,24,3499800,340,9.285
A,7,3491795,sinestep7.wav,None,1000,24,3501800,1153,11.285
A,7,3491795,sinestep3.wav,None,1000,24,3503800,339,13.285
A,7,3491795,silence.wav,None,1000,24,3505800,349,15.285
A,7,3491795,vowelstep7.wav,None,1000,24,3507800,329,17.285
A,7,3491795,sinestep7.wav,None,1000,24,3509800,330,19.285
A,7,3491795,vowelstep5_catch.wav,1,166,24,3511800,329,21.285
A,7,3491795,sinestep7.wav,None,1000,24,3513801,1173,23.285
A,7,3491795,sinestep3.wav,None,1000,24,3515801,339,25.285
A,7,3491795,silence.wav,None,1000,24,3517801,349,27.285
A,7,3491795,sinestep3.wav,None,1000,24,3519800,349,29.285
A,7,3491795,sinestep5_catch.wav,1,184,24,3521800,328,31.285
A,7,3491795,sinestep1.wav,None,1000,24,3523800,1144,33.285
A,7,3491795,sinestep1.wav,None,1000,24,3525800,338,35.285
A,7,3491795,sinestep5.wav,None,1000,24,3527800,339,37.285
A,7,3491795,vowelstep3.wav,None,1000,24,3529800,339,39.285
A,7,3491795,vowelstep5.wav,None,1000,24,3531801,335,41.285
A,7,3491795,vowelstep3.wav,None,1000,24,3533801,339,43.285
A,7,3491795,vowelstep1.wav,None,1000,24,3535801,326,45.285
A,7,3491795,vowelstep3.wav,None,1000,24,3537801,327,47.285
A,7,3491795,sinestep3.wav,None,1000,24,3539801,327,49.285
A,7,3491795,sinestep7.wav,None,1000,24,3541801,337,51.285
A,7,3491795,sinestep5.wav,None,1000,24,3543800,337,53.285
A,7,3491795,vowelstep7_catch.wav,1,318,24,3545800,334,55.285
A,7,3491795,silence.wav,None,1000,24,3547800,1028,57.285
A,7,3491795,vowelstep3.wav,None,1000,24,3549801,347,59.285
A,7,3491795,vowelstep1.wav,None,1000,24,3551801,346,61.285
A,7,3491795,silence.wav,None,1000,24,3553801,336,63.285
A,7,3491795,sinestep3.wav,None,1000,24,3555801,336,65.285
A,7,3491795,sinestep7.wav,None,1000,24,3557801,336,67.285
A,7,3491795,sinestep5.wav,None,1000,24,3559801,336,69.285
A,7,3491795,sinestep5.wav,None,1000,24,3561801,343,71.285
A,7,3491795,sinestep7.wav,None,1000,24,3563801,347,73.285
A,7,3491795,sinestep1.wav,None,1000,24,3565801,345,75.285
A,7,3491795,sinestep5.wav,None,1000,24,3567802,325,77.285
A,7,3491795,vowelstep1.wav,None,1000,24,3569801,335,79.285
A,7,3491795,sinestep1.wav,None,1000,24,3571801,335,81.285
A,7,3491795,vowelstep5.wav,None,1000,24,3573801,335,83.285
A,7,3491795,sinestep1.wav,None,1000,24,3575801,341,85.285
A,7,3491795,silence.wav,None,1000,24,3577801,345,87.285
A,7,3491795,vowelstep1.wav,None,1000,24,3579801,344,89.285
A,7,3491795,sinestep3.wav,None,1000,24,3581801,356,91.285
A,7,3491795,vowelstep5.wav,None,1000,24,3583802,325,93.285
A,7,3491795,vowelstep5.wav,None,1000,24,3585802,334,95.285
A,7,3491795,vowelstep5.wav,None,1000,24,3587802,334,97.285
A,7,3491795,vowelstep7.wav,None,1000,24,3589802,344,99.285
A,7,3491795,vowelstep3.wav,None,1000,24,3591802,340,101.285
A,7,3491795,sinestep1.wav,None,1000,24,3593801,344,103.285
A,7,3491795,sinestep1.wav,None,1000,24,3595801,343,105.285
A,7,3491795,vowelstep7.wav,None,1000,24,3597801,334,107.285
A,7,3491795,vowelstep1.wav,None,1000,24,3599801,334,109.285
A,7,3491795,vowelstep7.wav,None,1000,24,3601802,334,111.285
A,7,3491795,silence.wav,None,1000,24,3603802,333,113.285
A,7,3491795,sinestep1.wav,None,1000,24,3605802,343,115.285
A,7,3491795,vowelstep1.wav,None,1000,24,3607802,342,117.285
A,7,3491795,silence.wav,None,1000,24,3609802,353,119.285
A,7,3491795,vowelstep1.wav,None,1000,24,3611802,323,121.285
A,7,3491795,vowelstep3.wav,None,1000,24,3613802,333,123.285
A,7,3491795,vowelstep1.wav,None,1000,24,3615802,333,125.285
A,7,3491795,sinestep7.wav,None,1000,24,3617801,343,127.285
A,7,3491795,silence.wav,None,1000,24,3619802,343,129.285
A,7,3491795,vowelstep1.wav,None,1000,24,3621802,342,131.285
A,7,3491795,silence.wav,None,1000,24,3623802,342,133.285
A,7,3491795,sinestep7.wav,None,1000,24,3625802,352,135.285
A,7,3491795,vowelstep5.wav,None,1000,24,3627802,332,137.285
A,7,3491795,sinestep7.wav,None,1000,24,3629802,332,139.285
A,7,3491795,sinestep3.wav,None,1000,24,3631802,334,141.285
A,7,3491795,vowelstep5.wav,None,1000,24,3633802,342,143.285
A,7,3491795,silence.wav,None,1000,24,3635802,342,145.285
A,7,3491795,sinestep3.wav,None,1000,24,3637803,341,147.285
A,7,3491795,sinestep5.wav,None,1000,24,3639803,352,149.285
A,7,3491795,sinestep3.wav,None,1000,24,3641802,327,151.285
A,7,3491795,vowelstep3.wav,None,1000,24,3643802,331,153.285
A,7,3491795,sinestep3.wav,None,1000,24,3645802,330,155.285
A,7,3491795,vowelstep7_catch.wav,1,187,24,3647802,341,157.285
A,7,3491795,vowelstep7.wav,None,1000,24,3649802,1153,159.285
A,7,3491795,vowelstep5.wav,None,1000,24,3651802,340,161.285
A,7,3491795,sinestep5.wav,None,1000,24,3653803,320,163.285
A,7,3491795,silence.wav,None,1000,24,3655803,330,165.285
A,7,3491795,sinestep5.wav,None,1000,24,3657803,330,167.285
A,7,3491795,vowelstep5_catch.wav,1,291,24,3659803,329,169.285
A,7,3491795,silence.wav,None,1000,24,3661803,1048,171.285
A,7,3491795,sinestep7.wav,None,1000,24,3663803,340,173.285
A,7,3491795,sinestep5.wav,None,1000,24,3665802,340,175.285
A,7,3491795,sinestep7.wav,None,1000,24,3667802,350,177.285
A,7,3491795,vowelstep3.wav,None,1000,24,3669802,330,179.285
A,7,3491795,sinestep5.wav,None,1000,24,3671803,329,181.285
A,7,3491795,vowelstep1.wav,None,1000,24,3673803,326,183.285
A,7,3491795,vowelstep5.wav,None,1000,24,3675803,339,185.285
A,7,3491795,sinestep5.wav,None,1000,24,3677803,337,187.285
A,7,3491795,vowelstep1.wav,None,1000,24,3679803,338,189.285
A,7,3491795,silence.wav,None,1000,24,3681803,348,191.285
A,7,3491795,sinestep1.wav,None,1000,24,3683803,329,193.285
A,7,3491795,vowelstep5.wav,None,1000,24,3685803,328,195.285
A,7,3491795,sinestep3.wav,None,1000,24,3687803,329,197.285
A,7,3491795,silence.wav,None,1000,24,3689804,335,199.285
A,7,3491795,vowelstep3.wav,None,1000,24,3691803,338,201.285
A,7,3491795,vowelstep3_catch.wav,1,320,24,3693803,336,203.285
A,7,3491795,vowelstep5.wav,None,1000,24,3695803,1027,205.285
A,7,3491795,vowelstep1_catch.wav,1,203,24,3697803,328,207.285
A,7,3491795,silence.wav,None,1000,24,3699803,1124,209.285
A,7,3491795,sinestep3.wav,None,1000,24,3701803,327,211.285
A,7,3491795,vowelstep5.wav,None,1000,24,3703803,338,213.285
A,7,3491795,silence.wav,None,1000,24,3705803,338,215.285
A,7,3491795,sinestep5.wav,None,1000,24,3707804,336,217.285
A,7,3491795,vowelstep7.wav,None,1000,24,3709804,347,219.285
A,7,3491795,silence.wav,None,1000,24,3711804,313,221.285
A,7,3491795,vowelstep3.wav,None,1000,24,3713804,327,223.285
A,7,3491795,sinestep7.wav,None,1000,24,3715803,325,225.285
A,7,3491795,silence.wav,None,1000,24,3717803,336,227.285
A,7,3491795,vowelstep3.wav,None,1000,24,3719803,337,229.285
A,7,3491795,vowelstep5.wav,None,1000,24,3721803,333,231.285
A,7,3491795,vowelstep7.wav,None,1000,24,3723804,337,233.285
A,7,3491795,vowelstep3.wav,None,1000,24,3725804,325,235.285
A,7,3491795,vowelstep5.wav,None,1000,24,3727804,326,237.285
A,7,3491795,sinestep1_catch.wav,1,167,24,3729804,326,239.285
A,7,3491795,sinestep3.wav,None,1000,24,3731804,1168,241.285
A,7,3491795,sinestep1.wav,None,1000,24,3733804,336,243.285
A,7,3491795,sinestep3_catch.wav,1,149,24,3735804,337,245.285
A,7,3491795,sinestep7.wav,None,1000,24,3737804,1182,247.285
A,7,3491795,vowelstep1.wav,None,1000,24,3739803,317,249.285
A,7,3491795,sinestep3.wav,None,1000,24,3741804,323,251.285
A,7,3491795,vowelstep7.wav,None,1000,24,3743804,326,253.285
A,7,3491795,silence.wav,None,1000,24,3745804,325,255.285
A,7,3491795,sinestep1.wav,None,1000,24,3747804,334,257.285
A,7,3491795,silence.wav,None,1000,24,3749804,334,259.285
A,7,3491795,vowelstep5.wav,None,1000,24,3751804,334,261.285
A,7,3491795,sinestep5_catch.wav,1,175,24,3753804,314,263.285
A,7,3491795,vowelstep7.wav,None,1000,24,3755804,1149,265.285
A,7,3491795,sinestep3.wav,None,1000,24,3757804,325,267.285
A,7,3491795,vowelstep1.wav,None,1000,24,3759805,325,269.285
A,7,3491795,vowelstep3.wav,None,1000,24,3761804,334,271.285
A,7,3491795,sinestep7_catch.wav,1,129,24,3763804,333,273.285
A,7,3491795,silence.wav,None,1000,24,3765804,1204,275.285
A,7,3491795,vowelstep7.wav,None,1000,24,3767804,343,277.285
A,7,3491795,sinestep7.wav,None,1000,24,3769804,323,279.285
A,7,3491795,sinestep1.wav,None,1000,24,3771804,320,281.285
A,7,3491795,vowelstep7.wav,None,1000,24,3773804,324,283.285
A,7,3491795,sinestep5.wav,None,1000,24,3775804,333,285.285
A,7,3491795,sinestep5.wav,None,1000,24,3777805,332,287.285
A,7,3491795,sinestep7_catch.wav,1,317,24,3779805,332,289.285
A,7,3491795,sinestep5.wav,None,1000,24,3781805,995,291.285
A,7,3491795,silence.wav,None,1000,24,3783805,322,293.285
A,7,3491795,vowelstep3.wav,None,1000,24,3785805,323,295.285
A,7,3491795,silence.wav,None,1000,24,3787804,322,297.285
A,7,3491795,vowelstep1.wav,None,1000,24,3789804,333,299.285
A,7,3491795,sinestep1.wav,None,1000,24,3791804,333,301.285
A,7,3491795,sinestep7.wav,None,1000,24,3793805,332,303.285
A,7,3491795,vowelstep7.wav,None,1000,24,3795805,341,305.285
A,7,3491795,sinestep1_catch.wav,1,183,24,3797805,341,307.285
A,7,3491795,silence.wav,None,1000,24,3799805,1157,309.285
A,7,3491795,silence.wav,None,1000,24,3801805,351,311.285
A,7,3491795,vowelstep7.wav,None,1000,24,3803805,321,313.285
A,7,3491795,sinestep1.wav,None,1000,24,3805805,332,315.285
A,7,3491795,vowelstep7.wav,None,1000,24,3807805,331,317.285
A,7,3491795,vowelstep7.wav,None,1000,24,3809805,341,319.285
F,8,3867966,sinestep1.wav,None,1000,24,3867973,0,1.285
F,8,3867966,vowelstep5.wav,None,1000,24,3869973,346,3.285
F,8,3867966,vowelstep3.wav,None,1000,24,3871973,329,5.285
F,8,3867966,sinestep5.wav,None,1000,24,3873973,328,7.285
F,8,3867966,vowelstep7.wav,None,1000,24,3875972,329,9.285
F,8,3867966,silence.wav,None,1000,24,3877972,340,11.285
F,8,3867966,vowelstep5.wav,None,1000,24,3879972,337,13.285
F,8,3867966,sinestep3.wav,None,1000,24,3881973,339,15.285
F,8,3867966,sinestep3.wav,None,1000,24,3883973,327,17.285
F,8,3867966,silence.wav,None,1000,24,3885973,326,19.285
F,8,3867966,vowelstep7.wav,None,1000,24,3887973,326,21.285
F,8,3867966,vowelstep7.wav,None,1000,24,3889973,333,23.285
F,8,3867966,vowelstep1_catch.wav,1,264,24,3891973,337,25.285
F,8,3867966,vowelstep3_catch.wav,1,116,24,3893973,1071,27.285
F,8,3867966,vowelstep1.wav,None,1000,24,3895973,1220,29.285
F,8,3867966,sinestep5.wav,None,1000,24,3897973,319,31.285
F,8,3867966,sinestep5.wav,None,1000,24,3899973,326,33.285
F,8,3867966,vowelstep7.wav,None,1000,24,3901973,326,35.285
F,8,3867966,sinestep3.wav,None,1000,24,3903973,327,37.285
F,8,3867966,sinestep7.wav,None,1000,24,3905973,335,39.285
F,8,3867966,vowelstep5_catch.wav,1,220,24,3907973,333,41.285
F,8,3867966,sinestep1.wav,None,1000,24,3909973,1115,43.285
F,8,3867966,vowelstep7_catch.wav,1,145,24,3911973,344,45.285
F,8,3867966,vowelstep3.wav,None,1000,24,3913973,1180,47.285
F,8,3867966,sinestep1.wav,None,1000,24,3915974,322,49.285
F,8,3867966,sinestep7.wav,None,1000,24,3917974,325,51.285
F,8,3867966,silence.wav,None,1000,24,3919974,334,53.285
F,8,3867966,sinestep7.wav,None,1000,24,3921974,334,55.285
F,8,3867966,vowelstep1.wav,None,1000,24,3923973,335,57.285
F,8,3867966,vowelstep3.wav,None,1000,24,3925973,315,59.285
F,8,3867966,vowelstep7_catch.wav,1,219,24,3927973,234,61.285
F,8,3867966,sinestep5.wav,None,1000,24,3929973,1104,63.285
F,8,3867966,sinestep3.wav,None,1000,24,3931973,325,65.285
F,8,3867966,vowelstep3.wav,None,1000,24,3933974,335,67.285
F,8,3867966,silence.wav,None,1000,24,3935974,333,69.285
F,8,3867966,vowelstep1.wav,None,1000,24,3937974,333,71.285
F,8,3867966,vowelstep1.wav,None,1000,24,3939974,343,73.285
F,8,3867966,vowelstep5_catch.wav,1,278,24,3941974,324,75.285
F,8,3867966,silence.wav,None,1000,24,3943974,1045,77.285
F,8,3867966,vowelstep3.wav,None,1000,24,3945974,322,79.285
F,8,3867966,vowelstep5.wav,None,1000,24,3947974,333,81.285
F,8,3867966,vowelstep3_catch.wav,1,267,24,3949973,334,83.285
F,8,3867966,vowelstep3.wav,None,1000,24,3951974,1064,85.285
F,8,3867966,sinestep7.wav,None,1000,24,3953974,342,87.285
F,8,3867966,vowelstep1.wav,None,1000,24,3955974,341,89.285
F,8,3867966,sinestep1.wav,None,1000,24,3957974,342,91.285
F,8,3867966,vowelstep1_catch.wav,1,844,24,3959974,353,93.285
F,8,3867966,vowelstep5.wav,None,1000,24,3961974,488,95.285
F,8,3867966,sinestep7.wav,None,1000,24,3963974,332,97.285
F,8,3867966,vowelstep7.wav,None,1000,24,3965974,333,99.285
F,8,3867966,vowelstep3.wav,None,1000,24,3967974,343,101.285
F,8,3867966,sinestep3.wav,None,1000,24,3969975,341,103.285
F,8,3867966,silence.wav,None,1000,24,3971974,341,105.285
F,8,3867966,sinestep1.wav,None,1000,24,3973974,349,107.285
F,8,3867966,sinestep1.wav,None,1000,24,3975974,320,109.285
F,8,3867966,silence.wav,None,1000,24,3977974,331,111.285
F,8,3867966,sinestep7.wav,None,1000,24,3979974,330,113.285
F,8,3867966,vowelstep3.wav,None,1000,24,3981974,341,115.285
F,8,3867966,sinestep3.wav,None,1000,24,3983974,341,117.285
F,8,3867966,vowelstep3.wav,None,1000,24,3985975,338,119.285
F,8,3867966,vowelstep7.wav,None,1000,24,3987975,348,121.285
F,8,3867966,vowelstep7.wav,None,1000,24,3989975,319,123.285
F,8,3867966,vowelstep5.wav,None,1000,24,3991975,330,125.285
F,8,3867966,sinestep1.wav,None,1000,24,3993975,324,127.285
F,8,3867966,silence.wav,None,1000,24,3995975,330,129.285
F,8,3867966,sinestep1.wav,None,1000,24,3997974,340,131.285
F,8,3867966,sinestep3.wav,None,1000,24,3999974,339,133.285
F,8,3867966,sinestep1_catch.wav,1,476,24,4001974,341,135.285
F,8,3867966,sinestep3.wav,None,1000,24,4003975,874,137.285
F,8,3867966,sinestep3.wav,None,1000,24,4005975,329,139.285
F,8,3867966,silence.wav,None,1000,24,4007975,329,141.285
F,8,3867966,silence.wav,None,1000,24,4009975,329,143.285
F,8,3867966,sinestep7.wav,None,1000,24,4011975,339,145.285
F,8,3867966,sinestep5.wav,None,1000,24,4013975,339,147.285
F,8,3867966,vowelstep1.wav,None,1000,24,4015975,340,149.285
F,8,3867966,sinestep7.wav,None,1000,24,4017975,318,151.285
F,8,3867966,silence.wav,None,1000,24,4019975,329,153.285
F,8,3867966,sinestep3_catch.wav,1,240,24,4021975,330,155.285
F,8,3867966,vowelstep5.wav,None,1000,24,4023975,1098,157.285
F,8,3867966,sinestep3.wav,None,1000,24,4025975,338,159.285
F,8,3867966,vowelstep5.wav,None,1000,24,4027975,310,161.285
F,8,3867966,sinestep3.wav,None,1000,24,4029975,338,163.285
F,8,3867966,vowelstep3.wav,None,1000,24,4031975,348,165.285
F,8,3867966,vowelstep1.wav,None,1000,24,4033975,328,167.285
F,8,3867966,sinestep5.wav,None,1000,24,4035975,328,169.285
F,8,3867966,vowelstep5.wav,None,1000,24,4037975,328,171.285
F,8,3867966,vowelstep1.wav,None,1000,24,4039976,337,173.285
F,8,3867966,vowelstep1.wav,None,1000,24,4041976,337,175.285
F,8,3867966,sinestep7.wav,None,1000,24,4043976,337,177.285
F,8,3867966,vowelstep1.wav,None,1000,24,4045975,345,179.285
F,8,3867966,sinestep5.wav,None,1000,24,4047975,326,181.285
F,8,3867966,vowelstep7.wav,None,1000,24,4049975,323,183.285
F,8,3867966,sinestep1.wav,None,1000,24,4051975,337,185.285
F,8,3867966,vowelstep7.wav,None,1000,24,4053975,335,187.285
F,8,3867966,sinestep5.wav,None,1000,24,4055976,337,189.285
F,8,3867966,vowelstep5.wav,None,1000,24,4057976,333,191.285
F,8,3867966,silence.wav,None,1000,24,4059976,344,193.285
F,8,3867966,sinestep7.wav,None,1000,24,4061976,326,195.285
F,8,3867966,vowelstep5.wav,None,1000,24,4063976,326,197.285
F,8,3867966,vowelstep7.wav,None,1000,24,4065976,326,199.285
F,8,3867966,silence.wav,None,1000,24,4067976,336,201.285
F,8,3867966,vowelstep1.wav,None,1000,24,4069975,336,203.285
F,8,3867966,vowelstep7.wav,None,1000,24,4071975,336,205.285
F,8,3867966,vowelstep7.wav,None,1000,24,4073976,344,207.285
F,8,3867966,vowelstep3.wav,None,1000,24,4075976,325,209.285
F,8,3867966,vowelstep3.wav,None,1000,24,4077976,325,211.285
F,8,3867966,silence.wav,None,1000,24,4079976,325,213.285
F,8,3867966,sinestep7.wav,None,1000,24,4081976,321,215.285
F,8,3867966,sinestep1.wav,None,1000,24,4083976,335,217.285
F,8,3867966,silence.wav,None,1000,24,4085976,333,219.285
F,8,3867966,vowelstep1.wav,None,1000,24,4087976,343,221.285
F,8,3867966,sinestep5_catch.wav,1,161,24,4089976,325,223.285
F,8,3867966,sinestep1.wav,None,1000,24,4091977,1162,225.285
F,8,3867966,silence.wav,None,1000,24,4093976,324,227.285
F,8,3867966,sinestep7.wav,None,1000,24,4095976,329,229.285
F,8,3867966,sinestep7.wav,None,1000,24,4097976,334,231.285
F,8,3867966,silence.wav,None,1000,24,4099976,328,233.285
F,8,3867966,vowelstep5.wav,None,1000,24,4101976,334,235.285
F,8,3867966,sinestep7.wav,None,1000,24,4103976,323,237.285
F,8,3867966,sinestep5.wav,None,1000,24,4105976,324,239.285
F,8,3867966,sinestep5.wav,None,1000,24,4107976,323,241.285
F,8,3867966,silence.wav,None,1000,24,4109977,323,243.285
F,8,3867966,vowelstep3.wav,None,1000,24,4111977,332,245.285
F,8,3867966,vowelstep3.wav,None,1000,24,4113977,333,247.285
F,8,3867966,silence.wav,None,1000,24,4115977,342,249.285
F,8,3867966,sinestep1.wav,None,1000,24,4117976,323,251.285
F,8,3867966,sinestep1.wav,None,1000,24,4119976,323,253.285
F,8,3867966,vowelstep5.wav,None,1000,24,4121976,322,255.285
F,8,3867966,silence.wav,None,1000,24,4123976,331,257.285
F,8,3867966,sinestep5.wav,None,1000,24,4125977,332,259.285
F,8,3867966,sinestep5.wav,None,1000,24,4127977,332,261.285
F,8,3867966,sinestep5.wav,None,1000,24,4129977,332,263.285
F,8,3867966,sinestep7.wav,None,1000,24,4131977,322,265.285
F,8,3867966,sinestep7_catch.wav,1,110,24,4133977,322,267.285
F,8,3867966,sinestep7_catch.wav,1,123,24,4135977,1211,269.285
F,8,3867966,sinestep1.wav,None,1000,24,4137977,1199,271.285
F,8,3867966,vowelstep7.wav,None,1000,24,4139977,332,273.285
F,8,3867966,sinestep3.wav,None,1000,24,4141976,331,275.285
F,8,3867966,sinestep3.wav,None,1000,24,4143977,331,277.285
F,8,3867966,silence.wav,None,1000,24,4145977,341,279.285
F,8,3867966,sinestep5_catch.wav,1,158,24,4147977,321,281.285
F,8,3867966,sinestep5.wav,None,1000,24,4149977,1162,283.285
F,8,3867966,silence.wav,None,1000,24,4151977,321,285.285
F,8,3867966,vowelstep5.wav,None,1000,24,4153977,331,287.285
F,8,3867966,silence.wav,None,1000,24,4155977,331,289.285
F,8,3867966,sinestep1.wav,None,1000,24,4157977,330,291.285
F,8,3867966,sinestep3.wav,None,1000,24,4159977,312,293.285
F,8,3867966,vowelstep3.wav,None,1000,24,4161978,317,295.285
F,8,3867966,silence.wav,None,1000,24,4163978,320,297.285
F,8,3867966,sinestep5.wav,None,1000,24,4165978,318,299.285
F,8,3867966,vowelstep5.wav,None,1000,24,4167977,330,301.285
F,8,3867966,vowelstep5.wav,None,1000,24,4169977,329,303.285
F,8,3867966,vowelstep1.wav,None,1000,24,4171977,330,305.285
F,8,3867966,sinestep3.wav,None,1000,24,4173977,340,307.285
F,8,3867966,silence.wav,None,1000,24,4175977,319,309.285
F,8,3867966,sinestep3_catch.wav,1,211,24,4177977,320,311.285
F,8,3867966,vowelstep1.wav,None,1000,24,4179978,1108,313.285
F,8,3867966,vowelstep7.wav,None,1000,24,4181978,329,315.285
F,8,3867966,vowelstep7.wav,None,1000,24,4183978,329,317.285
F,8,3867966,vowelstep1.wav,None,1000,24,4185978,316,319.285
H,9,4241020,sinestep3.wav,None,1000,24,4241028,0,1.285
H,9,4241020,sinestep7.wav,None,1000,24,4243028,340,3.285
H,9,4241020,sinestep3.wav,None,1000,24,4245028,340,5.285
H,9,4241020,vowelstep3.wav,None,1000,24,4247028,340,7.285
H,9,4241020,vowelstep1.wav,None,1000,24,4249029,320,9.285
H,9,4241020,sinestep7.wav,None,1000,24,4251029,329,11.285
H,9,4241020,vowelstep3.wav,None,1000,24,4253029,328,13.285
H,9,4241020,silence.wav,None,1000,24,4255029,328,15.285
H,9,4241020,vowelstep1.wav,None,1000,24,4257029,338,17.285
H,9,4241020,sinestep5.wav,None,1000,24,4259029,337,19.285
H,9,4241020,sinestep7.wav,None,1000,24,4261029,336,21.285
H,9,4241020,vowelstep7.wav,None,1000,24,4263028,348,23.285
H,9,4241020,vowelstep1_catch.wav,1,228,24,4265028,328,25.285
H,9,4241020,sinestep5.wav,None,1000,24,4267029,1100,27.285
H,9,4241020,vowelstep5.wav,None,1000,24,4269029,329,29.285
H,9,4241020,silence.wav,None,1000,24,4271029,338,31.285
H,9,4241020,vowelstep3_catch.wav,1,189,24,4273029,337,33.285
H,9,4241020,sinestep7.wav,None,1000,24,4275029,1148,35.285
H,9,4241020,sinestep5.wav,None,1000,24,4277029,348,37.285
H,9,4241020,silence.wav,None,1000,24,4279029,327,39.285
H,9,4241020,vowelstep3.wav,None,1000,24,4281029,327,41.285
H,9,4241020,vowelstep1.wav,None,1000,24,4283030,328,43.285
H,9,4241020,vowelstep1.wav,None,1000,24,4285030,337,45.285
H,9,4241020,vowelstep3.wav,None,1000,24,4287029,336,47.285
H,9,4241020,sinestep3.wav,None,1000,24,4289029,335,49.285
H,9,4241020,vowelstep1.wav,None,1000,24,4291029,342,51.285
H,9,4241020,sinestep7.wav,None,1000,24,4293029,317,53.285
H,9,4241020,vowelstep7.wav,None,1000,24,4295029,326,55.285
H,9,4241020,vowelstep5_catch.wav,1,175,24,4297029,325,57.285
H,9,4241020,vowelstep5.wav,None,1000,24,4299029,1161,59.285
H,9,4241020,vowelstep3.wav,None,1000,24,4301030,335,61.285
H,9,4241020,vowelstep7_catch.wav,1,224,24,4303030,334,63.285
H,9,4241020,sinestep3.wav,None,1000,24,4305030,1110,65.285
H,9,4241020,sinestep1.wav,None,1000,24,4307030,324,67.285
H,9,4241020,sinestep7.wav,None,1000,24,4309030,324,69.285
H,9,4241020,silence.wav,None,1000,24,4311030,325,71.285
H,9,4241020,vowelstep1.wav,None,1000,24,4313029,324,73.285
H,9,4241020,vowelstep7.wav,None,1000,24,4315029,334,75.285
H,9,4241020,sinestep7.wav,None,1000,24,4317029,334,77.285
H,9,4241020,sinestep1.wav,None,1000,24,4319030,338,79.285
H,9,4241020,sinestep7.wav,None,1000,24,4321030,313,81.285
H,9,4241020,sinestep1.wav,None,1000,24,4323030,323,83.285
H,9,4241020,vowelstep5.wav,None,1000,24,4325030,315,85.285
H,9,4241020,sinestep3.wav,None,1000,24,4327030,334,87.285
H,9,4241020,vowelstep5.wav,None,1000,24,4329030,333,89.285
H,9,4241020,silence.wav,None,1000,24,4331030,334,91.285
H,9,4241020,silence.wav,None,1000,24,4333030,333,93.285
H,9,4241020,sinestep5.wav,None,1000,24,4335030,312,95.285
H,9,4241020,sinestep3.wav,None,1000,24,4337030,321,97.285
H,9,4241020,sinestep7.wav,None,1000,24,4339030,321,99.285
H,9,4241020,sinestep7_catch.wav,1,206,24,4341030,323,101.285
H,9,4241020,silence.wav,None,1000,24,4343030,1125,103.285
H,9,4241020,sinestep3.wav,None,1000,24,4345030,332,105.285
H,9,4241020,silence.wav,None,1000,24,4347030,333,107.285
H,9,4241020,vowelstep1.wav,None,1000,24,4349030,341,109.285
H,9,4241020,vowelstep7.wav,None,1000,24,4351030,323,111.285
H,9,4241020,sinestep5.wav,None,1000,24,4353031,322,113.285
H,9,4241020,silence.wav,None,1000,24,4355031,321,115.285
H,9,4241020,vowelstep7.wav,None,1000,24,4357031,331,117.285
H,9,4241020,vowelstep3.wav,None,1000,24,4359031,331,119.285
H,9,4241020,sinestep5.wav,None,1000,24,4361030,332,121.285
H,9,4241020,sinestep1.wav,None,1000,24,4363030,339,123.285
H,9,4241020,vowelstep3.wav,None,1000,24,4365030,321,125.285
H,9,4241020,vowelstep3.wav,None,1000,24,4367030,316,127.285
H,9,4241020,vowelstep5.wav,None,1000,24,4369030,320,129.285
H,9,4241020,vowelstep1.wav,None,1000,24,4371031,329,131.285
H,9,4241020,vowelstep7.wav,None,1000,24,4373031,329,133.285
H,9,4241020,vowelstep3.wav,None,1000,24,4375031,329,135.285
H,9,4241020,vowelstep5.wav,None,1000,24,4377031,329,137.285
H,9,4241020,vowelstep5.wav,None,1000,24,4379031,320,139.285
H,9,4241020,sinestep7.wav,None,1000,24,4381031,319,141.285
H,9,4241020,vowelstep1.wav,None,1000,24,4383031,320,143.285
H,9,4241020,sinestep3.wav,None,1000,24,4385031,317,145.285
H,9,4241020,sinestep1.wav,None,1000,24,4387030,329,147.285
H,9,4241020,vowelstep1.wav,None,1000,24,4389031,329,149.285
H,9,4241020,sinestep5_catch.wav,1,234,24,4391031,336,151.285
H,9,4241020,sinestep7.wav,None,1000,24,4393031,1074,153.285
H,9,4241020,sinestep3_catch.wav,1,39,24,4395031,319,155.285
H,9,4241020,sinestep7.wav,None,1000,24,4397031,1279,157.285
H,9,4241020,sinestep5.wav,None,1000,24,4399031,329,159.285
H,9,4241020,silence.wav,None,1000,24,4401031,328,161.285
H,9,4241020,sinestep1_catch.wav,1,185,24,4403031,329,163.285
H,9,4241020,vowelstep7.wav,None,1000,24,4405031,1143,165.285
H,9,4241020,vowelstep7.wav,None,1000,24,4407032,319,167.285
H,9,4241020,sinestep7.wav,None,1000,24,4409031,320,169.285
H,9,4241020,sinestep3.wav,None,1000,24,4411031,319,171.285
H,9,4241020,sinestep5.wav,None,1000,24,4413031,319,173.285
H,9,4241020,vowelstep1_catch.wav,1,152,24,4415031,329,175.285
H,9,4241020,vowelstep1.wav,None,1000,24,4417031,1176,177.285
H,9,4241020,sinestep3.wav,None,1000,24,4419031,338,179.285
H,9,4241020,sinestep3.wav,None,1000,24,4421031,308,181.285
H,9,4241020,vowelstep5.wav,None,1000,24,4423032,319,183.285
H,9,4241020,sinestep1.wav,None,1000,24,4425032,318,185.285
H,9,4241020,sinestep1.wav,None,1000,24,4427032,325,187.285
H,9,4241020,vowelstep7.wav,None,1000,24,4429032,328,189.285
H,9,4241020,sinestep1.wav,None,1000,24,4431032,328,191.285
H,9,4241020,sinestep5.wav,None,1000,24,4433032,337,193.285
H,9,4241020,vowelstep3_catch.wav,1,192,24,4435031,307,195.285
H,9,4241020,sinestep1.wav,None,1000,24,4437031,1126,197.285
H,9,4241020,silence.wav,None,1000,24,4439031,339,199.285
H,9,4241020,vowelstep1.wav,None,1000,24,4441032,348,201.285
H,9,4241020,vowelstep5_catch.wav,1,168,24,4443032,327,203.285
H,9,4241020,sinestep5.wav,None,1000,24,4445032,1158,205.285
H,9,4241020,sinestep1.wav,None,1000,24,4447032,246,207.285
H,9,4241020,silence.wav,None,1000,24,4449032,337,209.285
H,9,4241020,sinestep3.wav,None,1000,24,4451032,336,211.285
H,9,4241020,silence.wav,None,1000,24,4453032,336,213.285
H,9,4241020,vowelstep7_catch.wav,1,251,24,4455032,316,215.285
H,9,4241020,vowelstep5.wav,None,1000,24,4457032,1062,217.285
H,9,4241020,sinestep7.wav,None,1000,24,4459032,327,219.285
H,9,4241020,silence.wav,None,1000,24,4461032,325,221.285
H,9,4241020,sinestep1.wav,None,1000,24,4463032,335,223.285
H,9,4241020,silence.wav,None,1000,24,4465032,336,225.285
H,9,4241020,silence.wav,None,1000,24,4467032,332,227.285
H,9,4241020,silence.wav,None,1000,24,4469032,342,229.285
H,9,4241020,silence.wav,None,1000,24,4471032,325,231.285
H,9,4241020,sinestep5.wav,None,1000,24,4473032,325,233.285
H,9,4241020,silence.wav,None,1000,24,4475032,325,235.285
H,9,4241020,vowelstep3.wav,None,1000,24,4477033,334,237.285
H,9,4241020,silence.wav,None,1000,24,4479033,335,239.285
H,9,4241020,silence.wav,None,1000,24,4481032,334,241.285
H,9,4241020,vowelstep1_catch.wav,1,244,24,4483032,315,243.285
H,9,4241020,vowelstep5.wav,None,1000,24,4485032,1080,245.285
H,9,4241020,vowelstep7.wav,None,1000,24,4487032,324,247.285
H,9,4241020,vowelstep3_catch.wav,1,133,24,4489032,324,249.285
H,9,4241020,vowelstep1.wav,None,1000,24,4491032,1202,251.285
H,9,4241020,sinestep3.wav,None,1000,24,4493033,330,253.285
H,9,4241020,vowelstep5_catch.wav,1,101,24,4495033,330,255.285
H,9,4241020,vowelstep5.wav,None,1000,24,4497033,1208,257.285
H,9,4241020,silence.wav,None,1000,24,4499033,308,259.285
H,9,4241020,vowelstep7.wav,None,1000,24,4501033,321,261.285
H,9,4241020,sinestep5.wav,None,1000,24,4503033,321,263.285
H,9,4241020,vowelstep5.wav,None,1000,24,4505033,331,265.285
H,9,4241020,vowelstep7.wav,None,1000,24,4507032,331,267.285
H,9,4241020,vowelstep3.wav,None,1000,24,4509032,330,269.285
H,9,4241020,vowelstep3.wav,None,1000,24,4511033,338,271.285
H,9,4241020,silence.wav,None,1000,24,4513033,338,273.285
H,9,4241020,vowelstep3.wav,None,1000,24,4515033,320,275.285
H,9,4241020,sinestep1.wav,None,1000,24,4517033,313,277.285
H,9,4241020,silence.wav,None,1000,24,4519033,320,279.285
H,9,4241020,sinestep1.wav,None,1000,24,4521033,330,281.285
H,9,4241020,vowelstep3.wav,None,1000,24,4523033,330,283.285
H,9,4241020,silence.wav,None,1000,24,4525033,338,285.285
H,9,4241020,vowelstep5.wav,None,1000,24,4527033,310,287.285
H,9,4241020,vowelstep5.wav,None,1000,24,4529034,319,289.285
H,9,4241020,vowelstep1.wav,None,1000,24,4531033,317,291.285
H,9,4241020,sinestep5.wav,None,1000,24,4533033,318,293.285
H,9,4241020,vowelstep7.wav,None,1000,24,4535033,328,295.285
H,9,4241020,vowelstep1.wav,None,1000,24,4537033,328,297.285
H,9,4241020,vowelstep7.wav,None,1000,24,4539033,328,299.285
H,9,4241020,vowelstep3.wav,None,1000,24,4541033,337,301.285
H,9,4241020,sinestep1.wav,None,1000,24,4543033,318,303.285
H,9,4241020,sinestep5.wav,None,1000,24,4545033,318,305.285
H,9,4241020,vowelstep5.wav,None,1000,24,4547034,327,307.285
H,9,4241020,sinestep3.wav,None,1000,24,4549034,326,309.285
H,9,4241020,vowelstep7.wav,None,1000,24,4551034,327,311.285
H,9,4241020,sinestep7.wav,None,1000,24,4553034,334,313.285
H,9,4241020,sinestep5.wav,None,1000,24,4555033,306,315.285
H,9,4241020,sinestep3.wav,None,1000,24,4557033,317,317.285
H,9,4241020,sinestep1.wav,None,1000,24,4559033,316,319.285