block,count_main_sequence,first_trial_timestamp,fname,response_catch_response,response_time_catch_response,subject_nr,time_stimulus,time_to_pad,timing
P,NA,197720,vowelstep1_catch.wav,None,1000,32,197724,0,
P,NA,197720,sinestep7_catch.wav,1,913,32,199724,439,
P,NA,197720,vowelstep5_catch.wav,None,1000,32,201724,529,
P,NA,197720,sinestep7.wav,None,1000,32,203724,443,
P,NA,197720,sinestep7.wav,None,1000,32,205725,453,
P,NA,197720,sinestep3.wav,None,1000,32,207725,452,
P,NA,197720,sinestep1.wav,None,1000,32,209725,452,
P,NA,197720,vowelstep7.wav,None,1000,32,211725,462,
P,NA,197720,vowelstep3.wav,None,1000,32,213725,442,
P,NA,197720,silence.wav,None,1000,32,215725,442,
P,NA,197720,sinestep1.wav,None,1000,32,217725,443,
P,NA,197720,vowelstep1.wav,None,1000,32,219724,452,
P,NA,197720,sinestep5.wav,None,1000,32,221724,452,
P,NA,197720,sinestep1.wav,None,1000,32,223725,452,
P,NA,197720,sinestep1.wav,None,1000,32,225725,451,
P,NA,197720,vowelstep1.wav,None,1000,32,227725,441,
P,NA,197720,silence.wav,None,1000,32,229725,441,
P,NA,197720,silence.wav,None,1000,32,231725,441,
P,NA,197720,silence.wav,None,1000,32,233725,271,
P,NA,197720,sinestep3_catch.wav,1,294,32,235725,452,
P,NA,197720,vowelstep7.wav,None,1000,32,237725,1156,
P,NA,197720,silence.wav,None,1000,32,239725,461,
P,NA,197720,vowelstep7.wav,None,1000,32,241726,430,
P,NA,197720,vowelstep3.wav,None,1000,32,243725,441,
P,NA,197720,silence.wav,None,1000,32,245725,440,
P,NA,197720,vowelstep1.wav,None,1000,32,247725,450,
P,NA,197720,sinestep3.wav,None,1000,32,249725,450,
P,NA,197720,vowelstep1.wav,None,1000,32,251725,450,
P,NA,197720,silence.wav,None,1000,32,253725,450,
P,NA,197720,sinestep7.wav,None,1000,32,255725,440,
P,NA,197720,sinestep5_catch.wav,1,344,32,257726,440,
P,NA,197720,silence.wav,None,1000,32,259726,1095,
P,NA,197720,sinestep7.wav,None,1000,32,261726,439,
P,NA,197720,sinestep5.wav,None,1000,32,263726,449,
P,NA,197720,sinestep3.wav,None,1000,32,265725,449,
P,NA,197720,sinestep1_catch.wav,1,329,32,267725,449,
P,NA,197720,vowelstep3_catch.wav,1,448,32,269725,1130,
P,NA,197720,vowelstep5_catch.wav,1,327,32,271725,991,
P,NA,197720,vowelstep7.wav,None,1000,32,273725,1112,
P,NA,197720,silence.wav,None,1000,32,275726,439,
P,NA,197720,vowelstep7_catch.wav,1,288,32,277726,448,
P,NA,197720,vowelstep3.wav,None,1000,32,279726,1159,
P,NA,197720,silence.wav,None,1000,32,281726,448,
P,NA,197720,sinestep7_catch.wav,1,321,32,283726,428,
P,NA,197720,sinestep7.wav,None,1000,32,285726,1116,
P,NA,197720,vowelstep5.wav,None,1000,32,287726,438,
P,NA,197720,vowelstep3.wav,None,1000,32,289725,438,
P,NA,197720,sinestep5.wav,None,1000,32,291725,448,
P,NA,197720,sinestep5_catch.wav,1,281,32,293726,448,
P,NA,197720,sinestep3.wav,None,1000,32,295726,1165,
P,NA,197720,silence.wav,None,1000,32,297726,457,
P,NA,197720,vowelstep7.wav,None,1000,32,299726,457,
P,NA,197720,sinestep3_catch.wav,1,404,32,301726,437,
P,NA,197720,vowelstep5.wav,None,1000,32,303726,1033,
P,NA,197720,silence.wav,None,1000,32,305726,447,
P,NA,197720,sinestep1.wav,None,1000,32,307726,447,
P,NA,197720,vowelstep1.wav,None,1000,32,309726,447,
P,NA,197720,silence.wav,None,1000,32,311727,456,
P,NA,197720,silence.wav,None,1000,32,313726,455,
P,NA,197720,silence.wav,None,1000,32,315726,455,
P,NA,197720,sinestep1_catch.wav,1,310,32,317726,466,
P,NA,197720,sinestep1.wav,None,1000,32,319726,1135,
P,NA,197720,silence.wav,None,1000,32,321726,445,
P,NA,197720,vowelstep1_catch.wav,1,386,32,323726,446,
P,NA,197720,vowelstep5.wav,None,1000,32,325726,1069,
P,NA,197720,sinestep5.wav,None,1000,32,327727,456,
P,NA,197720,vowelstep3.wav,None,1000,32,329727,455,
P,NA,197720,silence.wav,None,1000,32,331727,465,
P,NA,197720,silence.wav,None,1000,32,333727,430,
P,NA,197720,sinestep7.wav,None,1000,32,335726,445,
P,NA,197720,vowelstep5.wav,None,1000,32,337726,445,
P,NA,197720,silence.wav,None,1000,32,339726,454,
P,NA,197720,vowelstep3_catch.wav,1,379,32,341726,455,
P,NA,197720,silence.wav,None,1000,32,343726,1075,
P,NA,197720,vowelstep5.wav,None,1000,32,345727,465,
P,NA,197720,vowelstep5_catch.wav,1,283,32,347727,444,
P,NA,197720,vowelstep7_catch.wav,1,474,32,349727,1160,
P,NA,197720,sinestep3.wav,None,1000,32,351727,969,
P,NA,197720,vowelstep5.wav,None,1000,32,353727,454,
P,NA,197720,vowelstep3.wav,None,1000,32,355727,454,
P,NA,197720,silence.wav,None,1000,32,357727,453,
P,NA,197720,sinestep3.wav,None,1000,32,359726,464,
P,NA,197720,silence.wav,None,1000,32,361726,444,
P,NA,197720,sinestep7_catch.wav,1,309,32,363727,444,
P,NA,197720,sinestep5_catch.wav,1,314,32,365727,1132,
P,NA,197720,sinestep5.wav,None,1000,32,367727,1126,
P,NA,197720,sinestep5.wav,None,1000,32,369727,453,
P,NA,197720,vowelstep7.wav,None,1000,32,371727,452,
P,NA,197720,sinestep3_catch.wav,1,268,32,373727,433,
P,NA,197720,vowelstep1.wav,None,1000,32,375727,1163,
A,0,758480,sinestep5_catch.wav,1,636,32,758499,0,1.285
A,0,758480,vowelstep1.wav,None,1000,32,760499,621,3.285
A,0,758480,vowelstep3.wav,None,1000,32,762499,327,5.285
A,0,758480,sinestep1.wav,None,1000,32,764500,339,7.285
A,0,758480,sinestep5_catch.wav,1,263,32,766500,338,9.285
A,0,758480,sinestep7.wav,None,1000,32,768500,1076,11.285
A,0,758480,sinestep3.wav,None,1000,32,770483,329,13.285
A,0,758480,silence.wav,None,1000,32,772499,349,15.285
A,0,758480,vowelstep7.wav,None,1000,32,774499,329,17.285
A,0,758480,sinestep7.wav,None,1000,32,776499,328,19.285
A,0,758480,vowelstep5_catch.wav,1,298,32,778499,338,21.285
A,0,758480,sinestep7.wav,None,1000,32,780499,1040,23.285
A,0,758480,sinestep3.wav,None,1000,32,782500,346,25.285
A,0,758480,silence.wav,None,1000,32,784483,317,27.285
A,0,758480,sinestep3.wav,None,1000,32,786483,344,29.285
A,0,758480,sinestep5_catch.wav,1,270,32,788483,348,31.285
A,0,758480,sinestep1.wav,None,1000,32,790500,1085,33.285
A,0,758480,sinestep1.wav,None,1000,32,792499,338,35.285
A,0,758480,sinestep5.wav,None,1000,32,794499,337,37.285
A,0,758480,vowelstep3.wav,None,1000,32,796499,337,39.285
A,0,758480,vowelstep5.wav,None,1000,32,798499,348,41.285
A,0,758480,vowelstep3.wav,None,1000,32,800483,328,43.285
A,0,758480,vowelstep1.wav,None,1000,32,802483,346,45.285
A,0,758480,vowelstep3.wav,None,1000,32,804483,356,47.285
A,0,758480,sinestep3.wav,None,1000,32,806483,356,49.285
A,0,758480,sinestep7.wav,None,1000,32,808500,356,51.285
A,0,758480,sinestep5.wav,None,1000,32,810500,337,53.285
A,0,758480,vowelstep7_catch.wav,1,285,32,812500,342,55.285
A,0,758480,silence.wav,None,1000,32,814500,1041,57.285
A,0,758480,vowelstep3.wav,None,1000,32,816483,327,59.285
A,0,758480,vowelstep1.wav,None,1000,32,818484,355,61.285
A,0,758480,silence.wav,None,1000,32,820484,355,63.285
A,0,758480,sinestep3.wav,None,1000,32,822483,355,65.285
A,0,758480,sinestep7.wav,None,1000,32,824483,365,67.285
A,0,758480,sinestep5.wav,None,1000,32,826500,344,69.285
A,0,758480,sinestep5.wav,None,1000,32,828500,316,71.285
A,0,758480,sinestep7.wav,None,1000,32,830500,323,73.285
A,0,758480,sinestep1.wav,None,1000,32,832483,326,75.285
A,0,758480,sinestep5.wav,None,1000,32,834484,356,77.285
A,0,758480,vowelstep1.wav,None,1000,32,836484,355,79.285
A,0,758480,sinestep1.wav,None,1000,32,838484,362,81.285
A,0,758480,vowelstep5.wav,None,1000,32,840484,333,83.285
A,0,758480,sinestep1.wav,None,1000,32,842484,344,85.285
A,0,758480,silence.wav,None,1000,32,844500,345,87.285
A,0,758480,vowelstep1.wav,None,1000,32,846500,322,89.285
A,0,758480,sinestep3.wav,None,1000,32,848483,335,91.285
A,0,758480,vowelstep5.wav,None,1000,32,850483,354,93.285
A,0,758480,vowelstep5.wav,None,1000,32,852484,354,95.285
A,0,758480,vowelstep5.wav,None,1000,32,854484,343,97.285
A,0,758480,vowelstep7.wav,None,1000,32,856484,343,99.285
A,0,758480,vowelstep3.wav,None,1000,32,858484,343,101.285
A,0,758480,sinestep1.wav,None,1000,32,860484,354,103.285
A,0,758480,sinestep1.wav,None,1000,32,862484,353,105.285
A,0,758480,vowelstep7.wav,None,1000,32,864484,353,107.285
A,0,758480,vowelstep1.wav,None,1000,32,866484,353,109.285
A,0,758480,vowelstep7.wav,None,1000,32,868483,334,111.285
A,0,758480,silence.wav,None,1000,32,870484,344,113.285
A,0,758480,sinestep1.wav,None,1000,32,872484,342,115.285
A,0,758480,vowelstep1.wav,None,1000,32,874484,352,117.285
A,0,758480,silence.wav,None,1000,32,876484,352,119.285
A,0,758480,vowelstep1.wav,None,1000,32,878484,352,121.285
A,0,758480,vowelstep3.wav,None,1000,32,880484,353,123.285
A,0,758480,vowelstep1.wav,None,1000,32,882484,342,125.285
A,0,758480,sinestep7.wav,None,1000,32,884484,342,127.285
A,0,758480,silence.wav,None,1000,32,886484,342,129.285
A,0,758480,vowelstep1.wav,None,1000,32,888485,341,131.285
A,0,758480,silence.wav,None,1000,32,890485,351,133.285
A,0,758480,sinestep7.wav,None,1000,32,892485,351,135.285
A,0,758480,vowelstep5.wav,None,1000,32,894484,349,137.285
A,0,758480,sinestep7.wav,None,1000,32,896484,360,139.285
A,0,758480,sinestep3.wav,None,1000,32,898484,342,141.285
A,0,758480,vowelstep5.wav,None,1000,32,900484,341,143.285
A,0,758480,silence.wav,None,1000,32,902484,341,145.285
A,0,758480,sinestep3.wav,None,1000,32,904485,351,147.285
A,0,758480,sinestep5.wav,None,1000,32,906485,349,149.285
A,0,758480,sinestep3.wav,None,1000,32,908485,349,151.285
A,0,758480,vowelstep3.wav,None,1000,32,910485,329,153.285
A,0,758480,sinestep3.wav,None,1000,32,912485,339,155.285
A,0,758480,vowelstep7_catch.wav,1,381,32,914485,339,157.285
A,0,758480,vowelstep7.wav,None,1000,32,916484,957,159.285
A,0,758480,vowelstep5.wav,None,1000,32,918484,349,161.285
A,0,758480,sinestep5.wav,None,1000,32,920484,350,163.285
A,0,758480,silence.wav,None,1000,32,922485,350,165.285
A,0,758480,sinestep5.wav,None,1000,32,924485,359,167.285
A,0,758480,vowelstep5_catch.wav,1,380,32,926485,339,169.285
A,0,758480,silence.wav,None,1000,32,928485,957,171.285
A,0,758480,sinestep7.wav,None,1000,32,930485,338,173.285
A,0,758480,sinestep5.wav,None,1000,32,932485,340,175.285
A,0,758480,sinestep7.wav,None,1000,32,934485,344,177.285
A,0,758480,vowelstep3.wav,None,1000,32,936485,349,179.285
A,0,758480,sinestep5.wav,None,1000,32,938484,358,181.285
A,0,758480,vowelstep1.wav,None,1000,32,940485,325,183.285
A,0,758480,vowelstep5.wav,None,1000,32,942485,338,185.285
A,0,758480,sinestep5.wav,None,1000,32,944485,337,187.285
A,0,758480,vowelstep1.wav,None,1000,32,946485,346,189.285
A,0,758480,silence.wav,None,1000,32,948485,348,191.285
A,0,758480,sinestep1.wav,None,1000,32,950485,347,193.285
A,0,758480,vowelstep5.wav,None,1000,32,952485,358,195.285
A,0,758480,sinestep3.wav,None,1000,32,954485,338,197.285
A,0,758480,silence.wav,None,1000,32,956485,338,199.285
A,0,758480,vowelstep3.wav,None,1000,32,958486,337,201.285
A,0,758480,vowelstep3_catch.wav,1,389,32,960486,336,203.285
A,0,758480,vowelstep5.wav,None,1000,32,962485,957,205.285
A,0,758480,vowelstep1_catch.wav,1,283,32,964485,347,207.285
A,0,758480,silence.wav,None,1000,32,966485,1073,209.285
A,0,758480,sinestep3.wav,None,1000,32,968485,327,211.285
A,0,758480,vowelstep5.wav,None,1000,32,970485,336,213.285
A,0,758480,silence.wav,None,1000,32,972485,337,215.285
A,0,758480,sinestep5.wav,None,1000,32,974486,337,217.285
A,0,758480,vowelstep7.wav,None,1000,32,976486,346,219.285
A,0,758480,silence.wav,None,1000,32,978486,345,221.285
A,0,758480,vowelstep3.wav,None,1000,32,980486,354,223.285
A,0,758480,sinestep7.wav,None,1000,32,982486,327,225.285
A,0,758480,silence.wav,None,1000,32,984486,335,227.285
A,0,758480,vowelstep3.wav,None,1000,32,986485,335,229.285
A,0,758480,vowelstep5.wav,None,1000,32,988485,347,231.285
A,0,758480,vowelstep7.wav,None,1000,32,990485,346,233.285
A,0,758480,vowelstep3.wav,None,1000,32,992486,346,235.285
A,0,758480,vowelstep5.wav,None,1000,32,994486,344,237.285
A,0,758480,sinestep1_catch.wav,1,313,32,996486,354,239.285
A,0,758480,sinestep3.wav,None,1000,32,998486,1021,241.285
A,0,758480,sinestep1.wav,None,1000,32,1000486,363,243.285
A,0,758480,sinestep3_catch.wav,1,319,32,1002486,334,245.285
A,0,758480,sinestep7.wav,None,1000,32,1004486,1025,247.285
A,0,758480,vowelstep1.wav,None,1000,32,1006486,345,249.285
A,0,758480,sinestep3.wav,None,1000,32,1008485,344,251.285
A,0,758480,vowelstep7.wav,None,1000,32,1010486,355,253.285
A,0,758480,silence.wav,None,1000,32,1012486,353,255.285
A,0,758480,sinestep1.wav,None,1000,32,1014486,353,257.285
A,0,758480,silence.wav,None,1000,32,1016486,344,259.285
A,0,758480,vowelstep5.wav,None,1000,32,1018486,344,261.285
A,0,758480,sinestep5_catch.wav,1,439,32,1020486,344,263.285
A,0,758480,vowelstep7.wav,None,1000,32,1022486,900,265.285
A,0,758480,sinestep3.wav,None,1000,32,1024486,352,267.285
A,0,758480,vowelstep1.wav,None,1000,32,1026486,353,269.285
A,0,758480,vowelstep3.wav,None,1000,32,1028487,360,271.285
A,0,758480,sinestep7_catch.wav,1,333,32,1030487,361,273.285
A,0,758480,silence.wav,None,1000,32,1032486,1009,275.285
A,0,758480,vowelstep7.wav,None,1000,32,1034486,342,277.285
A,0,758480,sinestep7.wav,None,1000,32,1036486,341,279.285
A,0,758480,sinestep1.wav,None,1000,32,1038486,353,281.285
A,0,758480,vowelstep7.wav,None,1000,32,1040486,353,283.285
A,0,758480,sinestep5.wav,None,1000,32,1042486,352,285.285
A,0,758480,sinestep5.wav,None,1000,32,1044487,363,287.285
A,0,758480,sinestep7_catch.wav,1,237,32,1046487,342,289.285
A,0,758480,sinestep5.wav,None,1000,32,1048487,1104,291.285
A,0,758480,silence.wav,None,1000,32,1050487,342,293.285
A,0,758480,vowelstep3.wav,None,1000,32,1052487,351,295.285
A,0,758480,silence.wav,None,1000,32,1054486,352,297.285
A,0,758480,vowelstep1.wav,None,1000,32,1056486,352,299.285
A,0,758480,sinestep1.wav,None,1000,32,1058486,360,301.285
A,0,758480,sinestep7.wav,None,1000,32,1060486,342,303.285
A,0,758480,vowelstep7.wav,None,1000,32,1062487,342,305.285
A,0,758480,sinestep1_catch.wav,1,249,32,1064487,341,307.285
A,0,758480,silence.wav,None,1000,32,1066487,1090,309.285
A,0,758480,silence.wav,None,1000,32,1068487,351,311.285
A,0,758480,vowelstep7.wav,None,1000,32,1070487,348,313.285
A,0,758480,sinestep1.wav,None,1000,32,1072487,359,315.285
A,0,758480,vowelstep7.wav,None,1000,32,1074487,340,317.285
A,0,758480,vowelstep7.wav,None,1000,32,1076487,340,319.285
I,1,1138229,vowelstep7.wav,None,1000,32,1138238,0,1.285
I,1,1138229,sinestep1_catch.wav,1,285,32,1140238,346,3.285
I,1,1138229,sinestep3.wav,None,1000,32,1142238,1050,5.285
I,1,1138229,silence.wav,None,1000,32,1144238,332,7.285
I,1,1138229,vowelstep7.wav,None,1000,32,1146238,336,9.285
I,1,1138229,sinestep3_catch.wav,1,234,32,1148237,335,11.285
I,1,1138229,vowelstep3.wav,None,1000,32,1150238,1108,13.285
I,1,1138229,vowelstep3.wav,None,1000,32,1152238,344,15.285
I,1,1138229,silence.wav,None,1000,32,1154238,354,17.285
I,1,1138229,vowelstep1.wav,None,1000,32,1156238,335,19.285
I,1,1138229,vowelstep5.wav,None,1000,32,1158238,335,21.285
I,1,1138229,vowelstep7.wav,None,1000,32,1160238,334,23.285
I,1,1138229,sinestep1.wav,None,1000,32,1162238,344,25.285
I,1,1138229,vowelstep1.wav,None,1000,32,1164238,345,27.285
I,1,1138229,sinestep5_catch.wav,1,365,32,1166238,344,29.285
I,1,1138229,sinestep5.wav,None,1000,32,1168239,976,31.285
I,1,1138229,vowelstep1.wav,None,1000,32,1170238,334,33.285
I,1,1138229,sinestep7.wav,None,1000,32,1172238,333,35.285
I,1,1138229,vowelstep3.wav,None,1000,32,1174238,332,37.285
I,1,1138229,vowelstep1.wav,None,1000,32,1176238,333,39.285
I,1,1138229,vowelstep1.wav,None,1000,32,1178238,343,41.285
I,1,1138229,sinestep3.wav,None,1000,32,1180238,343,43.285
I,1,1138229,sinestep5.wav,None,1000,32,1182238,353,45.285
I,1,1138229,sinestep5.wav,None,1000,32,1184239,334,47.285
I,1,1138229,vowelstep3.wav,None,1000,32,1186239,332,49.285
I,1,1138229,silence.wav,None,1000,32,1188239,333,51.285
I,1,1138229,sinestep7_catch.wav,1,252,32,1190239,342,53.285
I,1,1138229,silence.wav,None,1000,32,1192239,1089,55.285
I,1,1138229,sinestep1.wav,None,1000,32,1194238,340,57.285
I,1,1138229,vowelstep1.wav,None,1000,32,1196238,342,59.285
I,1,1138229,sinestep1.wav,None,1000,32,1198238,322,61.285
I,1,1138229,sinestep1.wav,None,1000,32,1200238,332,63.285
I,1,1138229,vowelstep7.wav,None,1000,32,1202239,332,65.285
I,1,1138229,sinestep5.wav,None,1000,32,1204239,332,67.285
I,1,1138229,sinestep5_catch.wav,1,238,32,1206239,341,69.285
I,1,1138229,vowelstep7.wav,None,1000,32,1208239,1103,71.285
I,1,1138229,vowelstep5.wav,None,1000,32,1210239,341,73.285
I,1,1138229,sinestep3.wav,None,1000,32,1212239,352,75.285
I,1,1138229,vowelstep1.wav,None,1000,32,1214239,331,77.285
I,1,1138229,sinestep3.wav,None,1000,32,1216238,331,79.285
I,1,1138229,sinestep5.wav,None,1000,32,1218238,331,81.285
I,1,1138229,sinestep5.wav,None,1000,32,1220239,341,83.285
I,1,1138229,vowelstep5.wav,None,1000,32,1222239,340,85.285
I,1,1138229,vowelstep7.wav,None,1000,32,1224239,340,87.285
I,1,1138229,sinestep3.wav,None,1000,32,1226239,350,89.285
I,1,1138229,vowelstep3.wav,None,1000,32,1228239,351,91.285
I,1,1138229,sinestep3.wav,None,1000,32,1230239,350,93.285
I,1,1138229,vowelstep5.wav,None,1000,32,1232239,360,95.285
I,1,1138229,sinestep7.wav,None,1000,32,1234239,339,97.285
I,1,1138229,sinestep3_catch.wav,1,189,32,1236239,341,99.285
I,1,1138229,sinestep1_catch.wav,1,314,32,1238240,1148,101.285
I,1,1138229,vowelstep3.wav,None,1000,32,1240239,1025,103.285
I,1,1138229,vowelstep3.wav,None,1000,32,1242239,349,105.285
I,1,1138229,vowelstep5.wav,None,1000,32,1244239,350,107.285
I,1,1138229,sinestep5.wav,None,1000,32,1246239,359,109.285
I,1,1138229,vowelstep5.wav,None,1000,32,1248239,329,111.285
I,1,1138229,vowelstep5.wav,None,1000,32,1250239,339,113.285
I,1,1138229,vowelstep1.wav,None,1000,32,1252239,338,115.285
I,1,1138229,vowelstep1_catch.wav,1,305,32,1254240,350,117.285
I,1,1138229,sinestep7.wav,None,1000,32,1256240,1042,119.285
I,1,1138229,vowelstep3.wav,None,1000,32,1258240,348,121.285
I,1,1138229,sinestep7.wav,None,1000,32,1260240,358,123.285
I,1,1138229,sinestep7.wav,None,1000,32,1262240,338,125.285
I,1,1138229,vowelstep7.wav,None,1000,32,1264239,338,127.285
I,1,1138229,vowelstep3.wav,None,1000,32,1266239,338,129.285
I,1,1138229,sinestep5.wav,None,1000,32,1268239,348,131.285
I,1,1138229,sinestep5.wav,None,1000,32,1270239,348,133.285
I,1,1138229,vowelstep3.wav,None,1000,32,1272240,347,135.285
I,1,1138229,sinestep5.wav,None,1000,32,1274240,357,137.285
I,1,1138229,sinestep1.wav,None,1000,32,1276240,357,139.285
I,1,1138229,vowelstep7.wav,None,1000,32,1278240,338,141.285
I,1,1138229,silence.wav,None,1000,32,1280240,337,143.285
I,1,1138229,vowelstep7.wav,None,1000,32,1282240,346,145.285
I,1,1138229,silence.wav,None,1000,32,1284240,347,147.285
I,1,1138229,sinestep1.wav,None,1000,32,1286239,347,149.285
I,1,1138229,vowelstep1.wav,None,1000,32,1288239,357,151.285
I,1,1138229,vowelstep3.wav,None,1000,32,1290240,337,153.285
I,1,1138229,silence.wav,None,1000,32,1292240,337,155.285
I,1,1138229,silence.wav,None,1000,32,1294240,336,157.285
I,1,1138229,vowelstep1.wav,None,1000,32,1296240,346,159.285
I,1,1138229,sinestep1.wav,None,1000,32,1298240,346,161.285
I,1,1138229,vowelstep3_catch.wav,1,341,32,1300240,346,163.285
I,1,1138229,sinestep1.wav,None,1000,32,1302240,1003,165.285
I,1,1138229,vowelstep5.wav,None,1000,32,1304240,337,167.285
I,1,1138229,vowelstep5_catch.wav,1,415,32,1306240,335,169.285
I,1,1138229,sinestep1.wav,None,1000,32,1308241,917,171.285
I,1,1138229,silence.wav,None,1000,32,1310240,341,173.285
I,1,1138229,vowelstep5.wav,None,1000,32,1312240,345,175.285
I,1,1138229,sinestep3.wav,None,1000,32,1314240,345,177.285
I,1,1138229,sinestep3.wav,None,1000,32,1316240,345,179.285
I,1,1138229,silence.wav,None,1000,32,1318240,335,181.285
I,1,1138229,silence.wav,None,1000,32,1320240,335,183.285
I,1,1138229,vowelstep3.wav,None,1000,32,1322240,334,185.285
I,1,1138229,vowelstep7.wav,None,1000,32,1324241,335,187.285
I,1,1138229,vowelstep7.wav,None,1000,32,1326241,344,189.285
I,1,1138229,silence.wav,None,1000,32,1328241,344,191.285
I,1,1138229,sinestep3.wav,None,1000,32,1330241,344,193.285
I,1,1138229,sinestep3.wav,None,1000,32,1332241,333,195.285
I,1,1138229,vowelstep5.wav,None,1000,32,1334240,333,197.285
I,1,1138229,vowelstep1.wav,None,1000,32,1336240,335,199.285
I,1,1138229,vowelstep1.wav,None,1000,32,1338240,333,201.285
I,1,1138229,sinestep5.wav,None,1000,32,1340240,344,203.285
I,1,1138229,silence.wav,None,1000,32,1342241,344,205.285
I,1,1138229,sinestep5.wav,None,1000,32,1344241,352,207.285
I,1,1138229,sinestep7.wav,None,1000,32,1346241,352,209.285
I,1,1138229,sinestep1.wav,None,1000,32,1348241,332,211.285
I,1,1138229,sinestep5.wav,None,1000,32,1350241,332,213.285
I,1,1138229,vowelstep5.wav,None,1000,32,1352241,332,215.285
I,1,1138229,sinestep7.wav,None,1000,32,1354241,342,217.285
I,1,1138229,sinestep5.wav,None,1000,32,1356240,343,219.285
I,1,1138229,sinestep3.wav,None,1000,32,1358240,343,221.285
I,1,1138229,silence.wav,None,1000,32,1360241,322,223.285
I,1,1138229,vowelstep7_catch.wav,1,368,32,1362241,331,225.285
I,1,1138229,sinestep7.wav,None,1000,32,1364241,962,227.285
I,1,1138229,sinestep7.wav,None,1000,32,1366241,332,229.285
I,1,1138229,sinestep3.wav,None,1000,32,1368241,342,231.285
I,1,1138229,vowelstep3.wav,None,1000,32,1370241,342,233.285
I,1,1138229,silence.wav,None,1000,32,1372241,342,235.285
I,1,1138229,sinestep3.wav,None,1000,32,1374241,351,237.285
I,1,1138229,sinestep5.wav,None,1000,32,1376241,332,239.285
I,1,1138229,silence.wav,None,1000,32,1378242,330,241.285
I,1,1138229,vowelstep3.wav,None,1000,32,1380241,331,243.285
I,1,1138229,sinestep1.wav,None,1000,32,1382241,340,245.285
I,1,1138229,sinestep1.wav,None,1000,32,1384241,337,247.285
I,1,1138229,sinestep7.wav,None,1000,32,1386241,341,249.285
I,1,1138229,vowelstep7.wav,None,1000,32,1388241,350,251.285
I,1,1138229,vowelstep5.wav,None,1000,32,1390241,319,253.285
I,1,1138229,silence.wav,None,1000,32,1392241,330,255.285
I,1,1138229,sinestep3.wav,None,1000,32,1394242,329,257.285
I,1,1138229,vowelstep1.wav,None,1000,32,1396242,339,259.285
I,1,1138229,vowelstep1.wav,None,1000,32,1398242,335,261.285
I,1,1138229,silence.wav,None,1000,32,1400242,339,263.285
I,1,1138229,vowelstep3.wav,None,1000,32,1402241,339,265.285
I,1,1138229,silence.wav,None,1000,32,1404241,330,267.285
I,1,1138229,silence.wav,None,1000,32,1406241,330,269.285
I,1,1138229,sinestep7.wav,None,1000,32,1408241,330,271.285
I,1,1138229,sinestep7.wav,None,1000,32,1410241,339,273.285
I,1,1138229,vowelstep5.wav,None,1000,32,1412242,337,275.285
I,1,1138229,silence.wav,None,1000,32,1414242,335,277.285
I,1,1138229,silence.wav,None,1000,32,1416242,348,279.285
I,1,1138229,sinestep1.wav,None,1000,32,1418242,328,281.285
I,1,1138229,silence.wav,None,1000,32,1420242,326,283.285
I,1,1138229,vowelstep7.wav,None,1000,32,1422242,327,285.285
I,1,1138229,vowelstep5_catch.wav,1,269,32,1424242,339,287.285
I,1,1138229,sinestep7.wav,None,1000,32,1426241,1068,289.285
I,1,1138229,sinestep1.wav,None,1000,32,1428241,339,291.285
I,1,1138229,vowelstep3_catch.wav,1,299,32,1430242,349,293.285
I,1,1138229,sinestep1.wav,None,1000,32,1432242,1015,295.285
I,1,1138229,vowelstep7.wav,None,1000,32,1434242,328,297.285
I,1,1138229,sinestep3.wav,None,1000,32,1436242,327,299.285
I,1,1138229,vowelstep5.wav,None,1000,32,1438242,327,301.285
I,1,1138229,vowelstep1_catch.wav,1,295,32,1440242,337,303.285
I,1,1138229,vowelstep7.wav,None,1000,32,1442242,1042,305.285
I,1,1138229,vowelstep5.wav,None,1000,32,1444242,338,307.285
I,1,1138229,sinestep1_catch.wav,1,282,32,1446242,347,309.285
I,1,1138229,silence.wav,None,1000,32,1448243,1043,311.285
I,1,1138229,sinestep7.wav,None,1000,32,1450242,326,313.285
I,1,1138229,silence.wav,None,1000,32,1452242,324,315.285
I,1,1138229,vowelstep1.wav,None,1000,32,1454242,336,317.285
I,1,1138229,sinestep7.wav,None,1000,32,1456242,335,319.285
G,2,1513828,vowelstep3.wav,None,1000,32,1513843,0,1.285
G,2,1513828,vowelstep3.wav,None,1000,32,1515843,332,3.285
G,2,1513828,vowelstep7.wav,None,1000,32,1517844,333,5.285
G,2,1513828,vowelstep3.wav,None,1000,32,1519843,343,7.285
G,2,1513828,sinestep5.wav,None,1000,32,1521843,343,9.285
G,2,1513828,sinestep1_catch.wav,1,272,32,1523843,343,11.285
G,2,1513828,silence.wav,None,1000,32,1525843,1051,13.285
G,2,1513828,silence.wav,None,1000,32,1527843,333,15.285
G,2,1513828,vowelstep7.wav,None,1000,32,1529843,333,17.285
G,2,1513828,vowelstep1.wav,None,1000,32,1531843,333,19.285
G,2,1513828,silence.wav,None,1000,32,1533844,343,21.285
G,2,1513828,sinestep1.wav,None,1000,32,1535844,342,23.285
G,2,1513828,vowelstep7.wav,None,1000,32,1537844,343,25.285
G,2,1513828,sinestep5.wav,None,1000,32,1539844,353,27.285
G,2,1513828,sinestep5.wav,None,1000,32,1541843,333,29.285
G,2,1513828,sinestep3.wav,None,1000,32,1543843,333,31.285
G,2,1513828,vowelstep3.wav,None,1000,32,1545843,332,33.285
G,2,1513828,silence.wav,None,1000,32,1547843,343,35.285
G,2,1513828,vowelstep1.wav,None,1000,32,1549843,342,37.285
G,2,1513828,sinestep7.wav,None,1000,32,1551844,342,39.285
G,2,1513828,vowelstep5.wav,None,1000,32,1553844,351,41.285
G,2,1513828,vowelstep3.wav,None,1000,32,1555844,333,43.285
G,2,1513828,sinestep1.wav,None,1000,32,1557844,331,45.285
G,2,1513828,sinestep7.wav,None,1000,32,1559844,331,47.285
G,2,1513828,sinestep1.wav,None,1000,32,1561844,331,49.285
G,2,1513828,sinestep5.wav,None,1000,32,1563844,341,51.285
G,2,1513828,vowelstep1.wav,None,1000,32,1565843,341,53.285
G,2,1513828,silence.wav,None,1000,32,1567843,342,55.285
G,2,1513828,sinestep5.wav,None,1000,32,1569844,352,57.285
G,2,1513828,vowelstep1.wav,None,1000,32,1571844,330,59.285
G,2,1513828,vowelstep3.wav,None,1000,32,1573844,330,61.285
G,2,1513828,sinestep3.wav,None,1000,32,1575844,328,63.285
G,2,1513828,sinestep1.wav,None,1000,32,1577844,340,65.285
G,2,1513828,vowelstep5.wav,None,1000,32,1579844,340,67.285
G,2,1513828,vowelstep3.wav,None,1000,32,1581844,350,69.285
G,2,1513828,vowelstep5.wav,None,1000,32,1583844,321,71.285
G,2,1513828,vowelstep7.wav,None,1000,32,1585844,330,73.285
G,2,1513828,vowelstep5.wav,None,1000,32,1587844,330,75.285
G,2,1513828,vowelstep5.wav,None,1000,32,1589844,328,77.285
G,2,1513828,sinestep3.wav,None,1000,32,1591844,339,79.285
G,2,1513828,sinestep3_catch.wav,1,245,32,1593844,339,81.285
G,2,1513828,sinestep5_catch.wav,1,150,32,1595844,1093,83.285
G,2,1513828,sinestep7.wav,None,1000,32,1597844,1199,85.285
G,2,1513828,sinestep7_catch.wav,1,310,32,1599844,328,87.285
G,2,1513828,sinestep7.wav,None,1000,32,1601844,1019,89.285
G,2,1513828,vowelstep1.wav,None,1000,32,1603845,339,91.285
G,2,1513828,vowelstep7.wav,None,1000,32,1605845,338,93.285
G,2,1513828,vowelstep3.wav,None,1000,32,1607845,338,95.285
G,2,1513828,sinestep3.wav,None,1000,32,1609845,348,97.285
G,2,1513828,sinestep1.wav,None,1000,32,1611844,317,99.285
G,2,1513828,sinestep1.wav,None,1000,32,1613844,328,101.285
G,2,1513828,sinestep5.wav,None,1000,32,1615844,329,103.285
G,2,1513828,vowelstep7.wav,None,1000,32,1617844,338,105.285
G,2,1513828,silence.wav,None,1000,32,1619844,338,107.285
G,2,1513828,sinestep3.wav,None,1000,32,1621845,338,109.285
G,2,1513828,vowelstep1.wav,None,1000,32,1623845,337,111.285
G,2,1513828,sinestep3.wav,None,1000,32,1625845,345,113.285
G,2,1513828,sinestep3.wav,None,1000,32,1627845,327,115.285
G,2,1513828,sinestep7.wav,None,1000,32,1629845,327,117.285
G,2,1513828,silence.wav,None,1000,32,1631845,327,119.285
G,2,1513828,vowelstep5.wav,None,1000,32,1633844,337,121.285
G,2,1513828,sinestep1_catch.wav,1,346,32,1635844,337,123.285
G,2,1513828,silence.wav,None,1000,32,1637844,988,125.285
G,2,1513828,sinestep5.wav,None,1000,32,1639845,317,127.285
G,2,1513828,sinestep7.wav,None,1000,32,1641845,326,129.285
G,2,1513828,sinestep3.wav,None,1000,32,1643845,325,131.285
G,2,1513828,sinestep3.wav,None,1000,32,1645845,326,133.285
G,2,1513828,vowelstep5.wav,None,1000,32,1647845,336,135.285
G,2,1513828,sinestep3.wav,None,1000,32,1649845,335,137.285
G,2,1513828,sinestep3_catch.wav,1,362,32,1651845,336,139.285
G,2,1513828,vowelstep1.wav,None,1000,32,1653845,952,141.285
G,2,1513828,vowelstep1.wav,None,1000,32,1655845,326,143.285
G,2,1513828,sinestep5.wav,None,1000,32,1657845,324,145.285
G,2,1513828,silence.wav,None,1000,32,1659845,324,147.285
G,2,1513828,sinestep3.wav,None,1000,32,1661845,335,149.285
G,2,1513828,silence.wav,None,1000,32,1663845,333,151.285
G,2,1513828,vowelstep3.wav,None,1000,32,1665845,335,153.285
G,2,1513828,sinestep5.wav,None,1000,32,1667845,335,155.285
G,2,1513828,vowelstep7.wav,None,1000,32,1669845,325,157.285
G,2,1513828,silence.wav,None,1000,32,1671845,324,159.285
G,2,1513828,sinestep5_catch.wav,1,275,32,1673846,325,161.285
G,2,1513828,vowelstep5.wav,None,1000,32,1675846,1048,163.285
G,2,1513828,silence.wav,None,1000,32,1677846,334,165.285
G,2,1513828,vowelstep7.wav,None,1000,32,1679846,333,167.285
G,2,1513828,vowelstep1.wav,None,1000,32,1681845,344,169.285
G,2,1513828,vowelstep1.wav,None,1000,32,1683845,344,171.285
G,2,1513828,vowelstep1.wav,None,1000,32,1685845,343,173.285
G,2,1513828,sinestep5.wav,None,1000,32,1687845,354,175.285
G,2,1513828,vowelstep3.wav,None,1000,32,1689845,332,177.285
G,2,1513828,sinestep1.wav,None,1000,32,1691846,334,179.285
G,2,1513828,vowelstep1.wav,None,1000,32,1693846,330,181.285
G,2,1513828,sinestep1.wav,None,1000,32,1695846,332,183.285
G,2,1513828,sinestep7.wav,None,1000,32,1697846,323,185.285
G,2,1513828,sinestep7.wav,None,1000,32,1699846,342,187.285
G,2,1513828,sinestep3.wav,None,1000,32,1701846,322,189.285
G,2,1513828,sinestep5.wav,None,1000,32,1703845,352,191.285
G,2,1513828,silence.wav,None,1000,32,1705845,331,193.285
G,2,1513828,sinestep7_catch.wav,1,337,32,1707845,332,195.285
G,2,1513828,vowelstep7_catch.wav,1,509,32,1709846,994,197.285
G,2,1513828,sinestep7.wav,None,1000,32,1711846,832,199.285
G,2,1513828,silence.wav,None,1000,32,1713846,340,201.285
G,2,1513828,sinestep7.wav,None,1000,32,1715846,341,203.285
G,2,1513828,sinestep3.wav,None,1000,32,1717846,319,205.285
G,2,1513828,vowelstep7.wav,None,1000,32,1719846,329,207.285
G,2,1513828,sinestep1.wav,None,1000,32,1721846,331,209.285
G,2,1513828,silence.wav,None,1000,32,1723846,331,211.285
G,2,1513828,silence.wav,None,1000,32,1725846,342,213.285
G,2,1513828,vowelstep7.wav,None,1000,32,1727846,340,215.285
G,2,1513828,vowelstep5.wav,None,1000,32,1729846,340,217.285
G,2,1513828,sinestep7.wav,None,1000,32,1731846,350,219.285
G,2,1513828,vowelstep5.wav,None,1000,32,1733846,329,221.285
G,2,1513828,vowelstep5_catch.wav,1,238,32,1735846,329,223.285
G,2,1513828,vowelstep7.wav,None,1000,32,1737846,1090,225.285
G,2,1513828,silence.wav,None,1000,32,1739846,340,227.285
G,2,1513828,silence.wav,None,1000,32,1741846,339,229.285
G,2,1513828,sinestep1.wav,None,1000,32,1743847,337,231.285
G,2,1513828,silence.wav,None,1000,32,1745847,319,233.285
G,2,1513828,vowelstep7.wav,None,1000,32,1747847,329,235.285
G,2,1513828,vowelstep5.wav,None,1000,32,1749846,328,237.285
G,2,1513828,vowelstep3.wav,None,1000,32,1751846,329,239.285
G,2,1513828,vowelstep3_catch.wav,1,423,32,1753846,339,241.285
G,2,1513828,sinestep1.wav,None,1000,32,1755846,913,243.285
G,2,1513828,silence.wav,None,1000,32,1757846,339,245.285
G,2,1513828,sinestep7.wav,None,1000,32,1759846,349,247.285
G,2,1513828,sinestep1.wav,None,1000,32,1761847,328,249.285
G,2,1513828,sinestep3.wav,None,1000,32,1763847,328,251.285
G,2,1513828,vowelstep3.wav,None,1000,32,1765847,328,253.285
G,2,1513828,vowelstep1_catch.wav,1,162,32,1767847,338,255.285
G,2,1513828,sinestep7.wav,None,1000,32,1769847,1176,257.285
G,2,1513828,silence.wav,None,1000,32,1771847,348,259.285
G,2,1513828,sinestep5.wav,None,1000,32,1773846,349,261.285
G,2,1513828,sinestep5.wav,None,1000,32,1775846,328,263.285
G,2,1513828,vowelstep5.wav,None,1000,32,1777846,327,265.285
G,2,1513828,sinestep5.wav,None,1000,32,1779831,328,267.285
G,2,1513828,sinestep7.wav,None,1000,32,1781847,357,269.285
G,2,1513828,silence.wav,None,1000,32,1783847,338,271.285
G,2,1513828,vowelstep7_catch.wav,1,306,32,1785847,337,273.285
G,2,1513828,vowelstep5.wav,None,1000,32,1787847,1038,275.285
G,2,1513828,silence.wav,None,1000,32,1789847,327,277.285
G,2,1513828,sinestep3.wav,None,1000,32,1791847,327,279.285
G,2,1513828,vowelstep5.wav,None,1000,32,1793847,327,281.285
G,2,1513828,silence.wav,None,1000,32,1795847,337,283.285
G,2,1513828,vowelstep1.wav,None,1000,32,1797831,336,285.285
G,2,1513828,sinestep1.wav,None,1000,32,1799847,356,287.285
G,2,1513828,vowelstep3.wav,None,1000,32,1801847,336,289.285
G,2,1513828,vowelstep7.wav,None,1000,32,1803847,327,291.285
G,2,1513828,vowelstep7.wav,None,1000,32,1805847,324,293.285
G,2,1513828,sinestep1.wav,None,1000,32,1807847,326,295.285
G,2,1513828,vowelstep5.wav,None,1000,32,1809847,326,297.285
G,2,1513828,silence.wav,None,1000,32,1811847,336,299.285
G,2,1513828,sinestep1.wav,None,1000,32,1813831,335,301.285
G,2,1513828,vowelstep7.wav,None,1000,32,1815831,335,303.285
G,2,1513828,vowelstep5_catch.wav,1,238,32,1817848,345,305.285
G,2,1513828,vowelstep3.wav,None,1000,32,1819847,1085,307.285
G,2,1513828,vowelstep3_catch.wav,1,403,32,1821847,325,309.285
G,2,1513828,sinestep7.wav,None,1000,32,1823847,929,311.285
G,2,1513828,sinestep5.wav,None,1000,32,1825847,335,313.285
G,2,1513828,vowelstep1.wav,None,1000,32,1827830,334,315.285
G,2,1513828,vowelstep3.wav,None,1000,32,1829847,335,317.285
G,2,1513828,vowelstep1.wav,None,1000,32,1831831,325,319.285
D,3,1890800,sinestep5.wav,None,1000,32,1890815,0,1.285
D,3,1890800,vowelstep1_catch.wav,1,269,32,1892815,341,3.285
D,3,1890800,sinestep7.wav,None,1000,32,1894815,1074,5.285
D,3,1890800,vowelstep3.wav,None,1000,32,1896815,342,7.285
D,3,1890800,vowelstep3_catch.wav,1,415,32,1898815,322,9.285
D,3,1890800,vowelstep5_catch.wav,1,301,32,1900815,916,11.285
D,3,1890800,sinestep7.wav,None,1000,32,1902816,1023,13.285
D,3,1890800,silence.wav,None,1000,32,1904815,331,15.285
D,3,1890800,vowelstep7_catch.wav,1,300,32,1906815,340,17.285
D,3,1890800,vowelstep7.wav,None,1000,32,1908815,1041,19.285
D,3,1890800,vowelstep3.wav,None,1000,32,1910815,342,21.285
D,3,1890800,vowelstep7_catch.wav,1,273,32,1912815,351,23.285
D,3,1890800,vowelstep5.wav,None,1000,32,1914815,1058,25.285
D,3,1890800,sinestep7.wav,None,1000,32,1916815,332,27.285
D,3,1890800,silence.wav,None,1000,32,1918816,330,29.285
D,3,1890800,vowelstep1.wav,None,1000,32,1920816,340,31.285
D,3,1890800,vowelstep1.wav,None,1000,32,1922816,340,33.285
D,3,1890800,vowelstep7.wav,None,1000,32,1924816,341,35.285
D,3,1890800,vowelstep3.wav,None,1000,32,1926816,320,37.285
D,3,1890800,sinestep3.wav,None,1000,32,1928815,330,39.285
D,3,1890800,sinestep1.wav,None,1000,32,1930815,330,41.285
D,3,1890800,vowelstep1.wav,None,1000,32,1932815,331,43.285
D,3,1890800,vowelstep1.wav,None,1000,32,1934815,340,45.285
D,3,1890800,sinestep7.wav,None,1000,32,1936816,341,47.285
D,3,1890800,sinestep3.wav,None,1000,32,1938816,339,49.285
D,3,1890800,vowelstep5_catch.wav,1,365,32,1940816,350,51.285
D,3,1890800,sinestep7.wav,None,1000,32,1942816,961,53.285
D,3,1890800,vowelstep5.wav,None,1000,32,1944816,329,55.285
D,3,1890800,sinestep3.wav,None,1000,32,1946816,329,57.285
D,3,1890800,sinestep7.wav,None,1000,32,1948816,339,59.285
D,3,1890800,vowelstep3.wav,None,1000,32,1950815,339,61.285
D,3,1890800,vowelstep3.wav,None,1000,32,1952815,339,63.285
D,3,1890800,vowelstep3_catch.wav,1,246,32,1954816,349,65.285
D,3,1890800,silence.wav,None,1000,32,1956816,1083,67.285
D,3,1890800,vowelstep7.wav,None,1000,32,1958816,328,69.285
D,3,1890800,silence.wav,None,1000,32,1960816,329,71.285
D,3,1890800,sinestep1.wav,None,1000,32,1962816,328,73.285
D,3,1890800,vowelstep5.wav,None,1000,32,1964816,339,75.285
D,3,1890800,vowelstep1.wav,None,1000,32,1966816,338,77.285
D,3,1890800,sinestep7.wav,None,1000,32,1968816,348,79.285
D,3,1890800,vowelstep1.wav,None,1000,32,1970816,320,81.285
D,3,1890800,sinestep7.wav,None,1000,32,1972817,326,83.285
D,3,1890800,vowelstep7.wav,None,1000,32,1974816,327,85.285
D,3,1890800,vowelstep5.wav,None,1000,32,1976816,338,87.285
D,3,1890800,vowelstep1.wav,None,1000,32,1978816,337,89.285
D,3,1890800,sinestep5.wav,None,1000,32,1980816,336,91.285
D,3,1890800,sinestep5.wav,None,1000,32,1982816,337,93.285
D,3,1890800,vowelstep3.wav,None,1000,32,1984816,327,95.285
D,3,1890800,silence.wav,None,1000,32,1986816,327,97.285
D,3,1890800,sinestep1.wav,None,1000,32,1988817,326,99.285
D,3,1890800,sinestep1.wav,None,1000,32,1990817,325,101.285
D,3,1890800,sinestep3.wav,None,1000,32,1992817,336,103.285
D,3,1890800,vowelstep1.wav,None,1000,32,1994817,335,105.285
D,3,1890800,sinestep7.wav,None,1000,32,1996817,345,107.285
D,3,1890800,vowelstep3.wav,None,1000,32,1998816,316,109.285
D,3,1890800,silence.wav,None,1000,32,2000816,325,111.285
D,3,1890800,vowelstep5.wav,None,1000,32,2002816,326,113.285
D,3,1890800,vowelstep1.wav,None,1000,32,2004816,335,115.285
D,3,1890800,vowelstep1_catch.wav,1,333,32,2006817,335,117.285
D,3,1890800,vowelstep7.wav,None,1000,32,2008817,1001,119.285
D,3,1890800,sinestep5.wav,None,1000,32,2010817,334,121.285
D,3,1890800,vowelstep7.wav,None,1000,32,2012817,344,123.285
D,3,1890800,sinestep1.wav,None,1000,32,2014817,324,125.285
D,3,1890800,sinestep1.wav,None,1000,32,2016817,323,127.285
D,3,1890800,vowelstep3.wav,None,1000,32,2018817,324,129.285
D,3,1890800,sinestep1.wav,None,1000,32,2020816,335,131.285
D,3,1890800,silence.wav,None,1000,32,2022816,334,133.285
D,3,1890800,sinestep3.wav,None,1000,32,2024817,334,135.285
D,3,1890800,silence.wav,None,1000,32,2026817,342,137.285
D,3,1890800,vowelstep3.wav,None,1000,32,2028817,322,139.285
D,3,1890800,vowelstep5.wav,None,1000,32,2030817,322,141.285
D,3,1890800,silence.wav,None,1000,32,2032817,322,143.285
D,3,1890800,sinestep5.wav,None,1000,32,2034817,333,145.285
D,3,1890800,sinestep5.wav,None,1000,32,2036817,332,147.285
D,3,1890800,sinestep1.wav,None,1000,32,2038817,332,149.285
D,3,1890800,vowelstep5.wav,None,1000,32,2040818,313,151.285
D,3,1890800,vowelstep5.wav,None,1000,32,2042818,322,153.285
D,3,1890800,sinestep1_catch.wav,1,325,32,2044817,322,155.285
D,3,1890800,sinestep5.wav,None,1000,32,2046817,995,157.285
D,3,1890800,vowelstep3.wav,None,1000,32,2048817,331,159.285
D,3,1890800,vowelstep7.wav,None,1000,32,2050817,331,161.285
D,3,1890800,vowelstep3.wav,None,1000,32,2052817,332,163.285
D,3,1890800,sinestep3.wav,None,1000,32,2054817,332,165.285
D,3,1890800,sinestep1.wav,None,1000,32,2056817,319,167.285
D,3,1890800,silence.wav,None,1000,32,2058818,322,169.285
D,3,1890800,sinestep1.wav,None,1000,32,2060818,313,171.285
D,3,1890800,vowelstep1.wav,None,1000,32,2062818,330,173.285
D,3,1890800,vowelstep3.wav,None,1000,32,2064818,330,175.285
D,3,1890800,silence.wav,None,1000,32,2066817,326,177.285
D,3,1890800,sinestep7.wav,None,1000,32,2068817,340,179.285
D,3,1890800,silence.wav,None,1000,32,2070817,340,181.285
D,3,1890800,vowelstep7.wav,None,1000,32,2072817,340,183.285
D,3,1890800,sinestep3.wav,None,1000,32,2074817,350,185.285
D,3,1890800,vowelstep1.wav,None,1000,32,2076818,329,187.285
D,3,1890800,sinestep7.wav,None,1000,32,2078818,329,189.285
D,3,1890800,silence.wav,None,1000,32,2080818,329,191.285
D,3,1890800,sinestep1.wav,None,1000,32,2082818,339,193.285
D,3,1890800,sinestep3.wav,None,1000,32,2084818,339,195.285
D,3,1890800,sinestep5.wav,None,1000,32,2086818,339,197.285
D,3,1890800,vowelstep3.wav,None,1000,32,2088818,350,199.285
D,3,1890800,sinestep5.wav,None,1000,32,2090817,329,201.285
D,3,1890800,sinestep5.wav,None,1000,32,2092817,328,203.285
D,3,1890800,sinestep3.wav,None,1000,32,2094818,328,205.285
D,3,1890800,sinestep3.wav,None,1000,32,2096818,338,207.285
D,3,1890800,sinestep5.wav,None,1000,32,2098818,338,209.285
D,3,1890800,sinestep3_catch.wav,1,340,32,2100818,336,211.285
D,3,1890800,vowelstep7.wav,None,1000,32,2102818,1005,213.285
D,3,1890800,sinestep1.wav,None,1000,32,2104818,315,215.285
D,3,1890800,sinestep7.wav,None,1000,32,2106818,328,217.285
D,3,1890800,vowelstep1.wav,None,1000,32,2108818,327,219.285
D,3,1890800,sinestep5.wav,None,1000,32,2110819,335,221.285
D,3,1890800,silence.wav,None,1000,32,2112819,336,223.285
D,3,1890800,sinestep5_catch.wav,1,246,32,2114818,337,225.285
D,3,1890800,sinestep5.wav,None,1000,32,2116818,1090,227.285
D,3,1890800,silence.wav,None,1000,32,2118818,327,229.285
D,3,1890800,vowelstep7.wav,None,1000,32,2120818,327,231.285
D,3,1890800,sinestep3.wav,None,1000,32,2122818,326,233.285
D,3,1890800,vowelstep5.wav,None,1000,32,2124818,326,235.285
D,3,1890800,vowelstep7.wav,None,1000,32,2126818,336,237.285
D,3,1890800,vowelstep5.wav,None,1000,32,2128819,337,239.285
D,3,1890800,silence.wav,None,1000,32,2130819,346,241.285
D,3,1890800,silence.wav,None,1000,32,2132819,325,243.285
D,3,1890800,silence.wav,None,1000,32,2134819,326,245.285
D,3,1890800,sinestep7.wav,None,1000,32,2136818,326,247.285
D,3,1890800,sinestep5.wav,None,1000,32,2138818,336,249.285
D,3,1890800,sinestep7_catch.wav,1,334,32,2140818,336,251.285
D,3,1890800,vowelstep1.wav,None,1000,32,2142818,1001,253.285
D,3,1890800,vowelstep1.wav,None,1000,32,2144818,335,255.285
D,3,1890800,vowelstep3.wav,None,1000,32,2146819,325,257.285
D,3,1890800,silence.wav,None,1000,32,2148819,325,259.285
D,3,1890800,sinestep5.wav,None,1000,32,2150819,325,261.285
D,3,1890800,vowelstep7.wav,None,1000,32,2152819,324,263.285
D,3,1890800,vowelstep3.wav,None,1000,32,2154819,334,265.285
D,3,1890800,vowelstep7.wav,None,1000,32,2156819,334,267.285
D,3,1890800,vowelstep5.wav,None,1000,32,2158819,344,269.285
D,3,1890800,sinestep1.wav,None,1000,32,2160818,344,271.285
D,3,1890800,sinestep7.wav,None,1000,32,2162818,324,273.285
D,3,1890800,sinestep3.wav,None,1000,32,2164819,323,275.285
D,3,1890800,silence.wav,None,1000,32,2166819,333,277.285
D,3,1890800,sinestep7.wav,None,1000,32,2168819,332,279.285
D,3,1890800,vowelstep5.wav,None,1000,32,2170819,331,281.285
D,3,1890800,sinestep1.wav,None,1000,32,2172819,333,283.285
D,3,1890800,vowelstep1.wav,None,1000,32,2174819,313,285.285
D,3,1890800,sinestep1.wav,None,1000,32,2176819,323,287.285
D,3,1890800,vowelstep5.wav,None,1000,32,2178819,323,289.285
D,3,1890800,silence.wav,None,1000,32,2180820,324,291.285
D,3,1890800,sinestep3.wav,None,1000,32,2182820,332,293.285
D,3,1890800,vowelstep5.wav,None,1000,32,2184819,329,295.285
D,3,1890800,silence.wav,None,1000,32,2186819,332,297.285
D,3,1890800,sinestep3.wav,None,1000,32,2188803,342,299.285
D,3,1890800,vowelstep7.wav,None,1000,32,2190819,342,301.285
D,3,1890800,sinestep7_catch.wav,1,312,32,2192819,323,303.285
D,3,1890800,sinestep5_catch.wav,1,297,32,2194819,1007,305.285
D,3,1890800,sinestep3.wav,None,1000,32,2196819,1034,307.285
D,3,1890800,vowelstep5.wav,None,1000,32,2198820,333,309.285
D,3,1890800,silence.wav,None,1000,32,2200820,331,311.285
D,3,1890800,sinestep3_catch.wav,1,411,32,2202820,341,313.285
D,3,1890800,silence.wav,None,1000,32,2204803,905,315.285
D,3,1890800,vowelstep7.wav,None,1000,32,2206803,342,317.285
D,3,1890800,silence.wav,None,1000,32,2208819,340,319.285
H,4,2270766,sinestep3.wav,None,1000,32,2270771,0,1.285
H,4,2270766,sinestep7.wav,None,1000,32,2272771,343,3.285
H,4,2270766,sinestep3.wav,None,1000,32,2274771,341,5.285
H,4,2270766,vowelstep3.wav,None,1000,32,2276770,333,7.285
H,4,2270766,vowelstep1.wav,None,1000,32,2278770,354,9.285
H,4,2270766,sinestep7.wav,None,1000,32,2280770,352,11.285
H,4,2270766,vowelstep3.wav,None,1000,32,2282770,333,13.285
H,4,2270766,silence.wav,None,1000,32,2284770,343,15.285
H,4,2270766,vowelstep1.wav,None,1000,32,2286771,343,17.285
H,4,2270766,sinestep5.wav,None,1000,32,2288771,353,19.285
H,4,2270766,sinestep7.wav,None,1000,32,2290771,352,21.285
H,4,2270766,vowelstep7.wav,None,1000,32,2292771,351,23.285
H,4,2270766,vowelstep1_catch.wav,1,258,32,2294771,353,25.285
H,4,2270766,sinestep5.wav,None,1000,32,2296771,1104,27.285
H,4,2270766,vowelstep5.wav,None,1000,32,2298771,343,29.285
H,4,2270766,silence.wav,None,1000,32,2300770,342,31.285
H,4,2270766,vowelstep3_catch.wav,1,185,32,2302770,342,33.285
H,4,2270766,sinestep7.wav,None,1000,32,2304771,1165,35.285
H,4,2270766,sinestep5.wav,None,1000,32,2306771,352,37.285
H,4,2270766,silence.wav,None,1000,32,2308771,352,39.285
H,4,2270766,vowelstep3.wav,None,1000,32,2310771,322,41.285
H,4,2270766,vowelstep1.wav,None,1000,32,2312771,342,43.285
H,4,2270766,vowelstep1.wav,None,1000,32,2314771,342,45.285
H,4,2270766,vowelstep3.wav,None,1000,32,2316771,351,47.285
H,4,2270766,sinestep3.wav,None,1000,32,2318771,350,49.285
H,4,2270766,vowelstep1.wav,None,1000,32,2320772,351,51.285
H,4,2270766,sinestep7.wav,None,1000,32,2322771,350,53.285
H,4,2270766,vowelstep7.wav,None,1000,32,2324771,359,55.285
H,4,2270766,vowelstep5_catch.wav,1,241,32,2326771,340,57.285
H,4,2270766,vowelstep5.wav,None,1000,32,2328771,1099,59.285
H,4,2270766,vowelstep3.wav,None,1000,32,2330771,335,61.285
H,4,2270766,vowelstep7_catch.wav,1,206,32,2332771,350,63.285
H,4,2270766,sinestep3.wav,None,1000,32,2334771,1143,65.285
H,4,2270766,sinestep1.wav,None,1000,32,2336771,350,67.285
H,4,2270766,sinestep7.wav,None,1000,32,2338772,361,69.285
H,4,2270766,silence.wav,None,1000,32,2340772,339,71.285
H,4,2270766,vowelstep1.wav,None,1000,32,2342772,339,73.285
H,4,2270766,vowelstep7.wav,None,1000,32,2344772,340,75.285
H,4,2270766,sinestep7.wav,None,1000,32,2346771,349,77.285
H,4,2270766,sinestep1.wav,None,1000,32,2348771,349,79.285
H,4,2270766,sinestep7.wav,None,1000,32,2350771,350,81.285
H,4,2270766,sinestep1.wav,None,1000,32,2352771,349,83.285
H,4,2270766,vowelstep5.wav,None,1000,32,2354771,340,85.285
H,4,2270766,sinestep3.wav,None,1000,32,2356772,339,87.285
H,4,2270766,vowelstep5.wav,None,1000,32,2358772,338,89.285
H,4,2270766,silence.wav,None,1000,32,2360772,348,91.285
H,4,2270766,silence.wav,None,1000,32,2362772,348,93.285
H,4,2270766,sinestep5.wav,None,1000,32,2364772,348,95.285
H,4,2270766,sinestep3.wav,None,1000,32,2366772,348,97.285
H,4,2270766,sinestep7.wav,None,1000,32,2368771,338,99.285
H,4,2270766,sinestep7_catch.wav,1,222,32,2370771,340,101.285
H,4,2270766,silence.wav,None,1000,32,2372771,1116,103.285
H,4,2270766,sinestep3.wav,None,1000,32,2374772,337,105.285
H,4,2270766,silence.wav,None,1000,32,2376772,348,107.285
H,4,2270766,vowelstep1.wav,None,1000,32,2378772,346,109.285
H,4,2270766,vowelstep7.wav,None,1000,32,2380772,347,111.285
H,4,2270766,sinestep5.wav,None,1000,32,2382772,327,113.285
H,4,2270766,silence.wav,None,1000,32,2384772,337,115.285
H,4,2270766,vowelstep7.wav,None,1000,32,2386772,337,117.285
H,4,2270766,vowelstep3.wav,None,1000,32,2388772,347,119.285
H,4,2270766,sinestep5.wav,None,1000,32,2390773,347,121.285
H,4,2270766,sinestep1.wav,None,1000,32,2392772,346,123.285
H,4,2270766,vowelstep3.wav,None,1000,32,2394772,346,125.285
H,4,2270766,vowelstep3.wav,None,1000,32,2396772,337,127.285
H,4,2270766,vowelstep5.wav,None,1000,32,2398772,336,129.285
H,4,2270766,vowelstep1.wav,None,1000,32,2400772,336,131.285
H,4,2270766,vowelstep7.wav,None,1000,32,2402772,336,133.285
H,4,2270766,vowelstep3.wav,None,1000,32,2404772,346,135.285
H,4,2270766,vowelstep5.wav,None,1000,32,2406772,346,137.285
H,4,2270766,vowelstep5.wav,None,1000,32,2408773,356,139.285
H,4,2270766,sinestep7.wav,None,1000,32,2410773,355,141.285
H,4,2270766,vowelstep1.wav,None,1000,32,2412773,334,143.285
H,4,2270766,sinestep3.wav,None,1000,32,2414773,335,145.285
H,4,2270766,sinestep1.wav,None,1000,32,2416772,335,147.285
H,4,2270766,vowelstep1.wav,None,1000,32,2418772,343,149.285
H,4,2270766,sinestep5_catch.wav,1,274,32,2420772,345,151.285
H,4,2270766,sinestep7.wav,None,1000,32,2422772,1081,153.285
H,4,2270766,sinestep3_catch.wav,1,298,32,2424772,355,155.285
H,4,2270766,sinestep7.wav,None,1000,32,2426773,1036,157.285
H,4,2270766,sinestep5.wav,None,1000,32,2428773,335,159.285
H,4,2270766,silence.wav,None,1000,32,2430773,334,161.285
H,4,2270766,sinestep1_catch.wav,1,336,32,2432773,344,163.285
H,4,2270766,vowelstep7.wav,None,1000,32,2434773,1008,165.285
H,4,2270766,vowelstep7.wav,None,1000,32,2436773,343,167.285
H,4,2270766,sinestep7.wav,None,1000,32,2438772,354,169.285
H,4,2270766,sinestep3.wav,None,1000,32,2440772,334,171.285
H,4,2270766,sinestep5.wav,None,1000,32,2442772,334,173.285
H,4,2270766,vowelstep1_catch.wav,1,224,32,2444773,333,175.285
H,4,2270766,vowelstep1.wav,None,1000,32,2446773,1106,177.285
H,4,2270766,sinestep3.wav,None,1000,32,2448773,344,179.285
H,4,2270766,sinestep3.wav,None,1000,32,2450773,343,181.285
H,4,2270766,vowelstep5.wav,None,1000,32,2452773,353,183.285
H,4,2270766,sinestep1.wav,None,1000,32,2454773,323,185.285
H,4,2270766,sinestep1.wav,None,1000,32,2456773,333,187.285
H,4,2270766,vowelstep7.wav,None,1000,32,2458773,329,189.285
H,4,2270766,sinestep1.wav,None,1000,32,2460774,342,191.285
H,4,2270766,sinestep5.wav,None,1000,32,2462773,342,193.285
H,4,2270766,vowelstep3_catch.wav,1,209,32,2464773,342,195.285
H,4,2270766,sinestep1.wav,None,1000,32,2466773,1143,197.285
H,4,2270766,silence.wav,None,1000,32,2468773,332,199.285
H,4,2270766,vowelstep1.wav,None,1000,32,2470773,329,201.285
H,4,2270766,vowelstep5_catch.wav,1,236,32,2472773,332,203.285
H,4,2270766,sinestep5.wav,None,1000,32,2474773,1105,205.285
H,4,2270766,sinestep1.wav,None,1000,32,2476773,342,207.285
H,4,2270766,silence.wav,None,1000,32,2478774,341,209.285
H,4,2270766,sinestep3.wav,None,1000,32,2480774,351,211.285
H,4,2270766,silence.wav,None,1000,32,2482774,318,213.285
H,4,2270766,vowelstep7_catch.wav,1,252,32,2484774,330,215.285
H,4,2270766,vowelstep5.wav,None,1000,32,2486773,1078,217.285
H,4,2270766,sinestep7.wav,None,1000,32,2488773,341,219.285
H,4,2270766,silence.wav,None,1000,32,2490773,340,221.285
H,4,2270766,sinestep1.wav,None,1000,32,2492773,341,223.285
H,4,2270766,silence.wav,None,1000,32,2494773,341,225.285
H,4,2270766,silence.wav,None,1000,32,2496774,321,227.285
H,4,2270766,silence.wav,None,1000,32,2498774,328,229.285
H,4,2270766,silence.wav,None,1000,32,2500774,330,231.285
H,4,2270766,sinestep5.wav,None,1000,32,2502774,340,233.285
H,4,2270766,silence.wav,None,1000,32,2504774,340,235.285
H,4,2270766,vowelstep3.wav,None,1000,32,2506774,340,237.285
H,4,2270766,silence.wav,None,1000,32,2508773,340,239.285
H,4,2270766,silence.wav,None,1000,32,2510773,350,241.285
H,4,2270766,vowelstep1_catch.wav,1,303,32,2512773,348,243.285
H,4,2270766,vowelstep5.wav,None,1000,32,2514774,1044,245.285
H,4,2270766,vowelstep7.wav,None,1000,32,2516774,328,247.285
H,4,2270766,vowelstep3_catch.wav,1,348,32,2518774,339,249.285
H,4,2270766,vowelstep1.wav,None,1000,32,2520774,990,251.285
H,4,2270766,sinestep3.wav,None,1000,32,2522774,339,253.285
H,4,2270766,vowelstep5_catch.wav,1,179,32,2524774,349,255.285
H,4,2270766,vowelstep5.wav,None,1000,32,2526774,1169,257.285
H,4,2270766,silence.wav,None,1000,32,2528774,329,259.285
H,4,2270766,vowelstep7.wav,None,1000,32,2530775,358,261.285
H,4,2270766,sinestep5.wav,None,1000,32,2532774,337,263.285
H,4,2270766,vowelstep5.wav,None,1000,32,2534774,338,265.285
H,4,2270766,vowelstep7.wav,None,1000,32,2536774,337,267.285
H,4,2270766,vowelstep3.wav,None,1000,32,2538774,346,269.285
H,4,2270766,vowelstep3.wav,None,1000,32,2540774,347,271.285
H,4,2270766,silence.wav,None,1000,32,2542774,347,273.285
H,4,2270766,vowelstep3.wav,None,1000,32,2544774,328,275.285
H,4,2270766,sinestep1.wav,None,1000,32,2546774,337,277.285
H,4,2270766,silence.wav,None,1000,32,2548775,337,279.285
H,4,2270766,sinestep1.wav,None,1000,32,2550775,335,281.285
H,4,2270766,vowelstep3.wav,None,1000,32,2552775,346,283.285
H,4,2270766,silence.wav,None,1000,32,2554774,347,285.285
H,4,2270766,vowelstep5.wav,None,1000,32,2556774,345,287.285
H,4,2270766,vowelstep5.wav,None,1000,32,2558774,356,289.285
H,4,2270766,vowelstep1.wav,None,1000,32,2560774,336,291.285
H,4,2270766,sinestep5.wav,None,1000,32,2562774,337,293.285
H,4,2270766,vowelstep7.wav,None,1000,32,2564774,336,295.285
H,4,2270766,vowelstep1.wav,None,1000,32,2566775,346,297.285
H,4,2270766,vowelstep7.wav,None,1000,32,2568775,346,299.285
H,4,2270766,vowelstep3.wav,None,1000,32,2570775,344,301.285
H,4,2270766,sinestep1.wav,None,1000,32,2572775,355,303.285
H,4,2270766,sinestep5.wav,None,1000,32,2574775,336,305.285
H,4,2270766,vowelstep5.wav,None,1000,32,2576775,336,307.285
H,4,2270766,sinestep3.wav,None,1000,32,2578774,335,309.285
H,4,2270766,vowelstep7.wav,None,1000,32,2580774,344,311.285
H,4,2270766,sinestep7.wav,None,1000,32,2582775,344,313.285
H,4,2270766,sinestep5.wav,None,1000,32,2584775,345,315.285
H,4,2270766,sinestep3.wav,None,1000,32,2586775,324,317.285
H,4,2270766,sinestep1.wav,None,1000,32,2588775,334,319.285
F,5,2649613,sinestep1.wav,None,1000,32,2649625,0,1.285
F,5,2649613,vowelstep5.wav,None,1000,32,2651625,316,3.285
F,5,2649613,vowelstep3.wav,None,1000,32,2653626,328,5.285
F,5,2649613,sinestep5.wav,None,1000,32,2655626,327,7.285
F,5,2649613,vowelstep7.wav,None,1000,32,2657626,327,9.285
F,5,2649613,silence.wav,None,1000,32,2659626,337,11.285
F,5,2649613,vowelstep5.wav,None,1000,32,2661626,337,13.285
F,5,2649613,sinestep3.wav,None,1000,32,2663626,336,15.285
F,5,2649613,sinestep3.wav,None,1000,32,2665626,317,17.285
F,5,2649613,silence.wav,None,1000,32,2667626,327,19.285
F,5,2649613,vowelstep7.wav,None,1000,32,2669626,328,21.285
F,5,2649613,vowelstep7.wav,None,1000,32,2671626,337,23.285
F,5,2649613,vowelstep1_catch.wav,1,289,32,2673626,334,25.285
F,5,2649613,vowelstep3_catch.wav,1,255,32,2675626,1043,27.285
F,5,2649613,vowelstep1.wav,None,1000,32,2677626,1090,29.285
F,5,2649613,sinestep5.wav,None,1000,32,2679626,346,31.285
F,5,2649613,sinestep5.wav,None,1000,32,2681626,326,33.285
F,5,2649613,vowelstep7.wav,None,1000,32,2683626,326,35.285
F,5,2649613,sinestep3.wav,None,1000,32,2685626,335,37.285
F,5,2649613,sinestep7.wav,None,1000,32,2687626,337,39.285
F,5,2649613,vowelstep5_catch.wav,1,299,32,2689627,334,41.285
F,5,2649613,sinestep1.wav,None,1000,32,2691627,1035,43.285
F,5,2649613,vowelstep7_catch.wav,1,330,32,2693626,346,45.285
F,5,2649613,vowelstep3.wav,None,1000,32,2695626,992,47.285
F,5,2649613,sinestep1.wav,None,1000,32,2697626,325,49.285
F,5,2649613,sinestep7.wav,None,1000,32,2699626,325,51.285
F,5,2649613,silence.wav,None,1000,32,2701626,332,53.285
F,5,2649613,sinestep7.wav,None,1000,32,2703626,334,55.285
F,5,2649613,vowelstep1.wav,None,1000,32,2705627,332,57.285
F,5,2649613,vowelstep3.wav,None,1000,32,2707627,343,59.285
F,5,2649613,vowelstep7_catch.wav,1,131,32,2709627,324,61.285
F,5,2649613,sinestep5.wav,None,1000,32,2711627,1190,63.285
F,5,2649613,sinestep3.wav,None,1000,32,2713627,324,65.285
F,5,2649613,vowelstep3.wav,None,1000,32,2715627,333,67.285
F,5,2649613,silence.wav,None,1000,32,2717626,332,69.285
F,5,2649613,vowelstep1.wav,None,1000,32,2719626,333,71.285
F,5,2649613,vowelstep1.wav,None,1000,32,2721626,314,73.285
F,5,2649613,vowelstep5_catch.wav,1,247,32,2723627,324,75.285
F,5,2649613,silence.wav,None,1000,32,2725627,1074,77.285
F,5,2649613,vowelstep3.wav,None,1000,32,2727627,323,79.285
F,5,2649613,vowelstep5.wav,None,1000,32,2729627,334,81.285
F,5,2649613,vowelstep3_catch.wav,1,228,32,2731627,333,83.285
F,5,2649613,vowelstep3.wav,None,1000,32,2733627,1104,85.285
F,5,2649613,sinestep7.wav,None,1000,32,2735627,333,87.285
F,5,2649613,vowelstep1.wav,None,1000,32,2737627,322,89.285
F,5,2649613,sinestep1.wav,None,1000,32,2739627,323,91.285
F,5,2649613,vowelstep1_catch.wav,1,300,32,2741627,323,93.285
F,5,2649613,vowelstep5.wav,None,1000,32,2743627,1030,95.285
F,5,2649613,sinestep7.wav,None,1000,32,2745627,332,97.285
F,5,2649613,vowelstep7.wav,None,1000,32,2747627,329,99.285
F,5,2649613,vowelstep3.wav,None,1000,32,2749627,341,101.285
F,5,2649613,sinestep3.wav,None,1000,32,2751627,340,103.285
F,5,2649613,silence.wav,None,1000,32,2753627,341,105.285
F,5,2649613,sinestep1.wav,None,1000,32,2755627,352,107.285
F,5,2649613,sinestep1.wav,None,1000,32,2757628,332,109.285
F,5,2649613,silence.wav,None,1000,32,2759628,331,111.285
F,5,2649613,sinestep7.wav,None,1000,32,2761628,331,113.285
F,5,2649613,vowelstep3.wav,None,1000,32,2763627,340,115.285
F,5,2649613,sinestep3.wav,None,1000,32,2765627,341,117.285
F,5,2649613,vowelstep3.wav,None,1000,32,2767627,340,119.285
F,5,2649613,vowelstep7.wav,None,1000,32,2769627,351,121.285
F,5,2649613,vowelstep7.wav,None,1000,32,2771627,351,123.285
F,5,2649613,vowelstep5.wav,None,1000,32,2773627,331,125.285
F,5,2649613,sinestep1.wav,None,1000,32,2775628,330,127.285
F,5,2649613,silence.wav,None,1000,32,2777628,330,129.285
F,5,2649613,sinestep1.wav,None,1000,32,2779628,339,131.285
F,5,2649613,sinestep3.wav,None,1000,32,2781628,339,133.285
F,5,2649613,sinestep1_catch.wav,1,292,32,2783628,339,135.285
F,5,2649613,sinestep3.wav,None,1000,32,2785628,1027,137.285
F,5,2649613,sinestep3.wav,None,1000,32,2787627,330,139.285
F,5,2649613,silence.wav,None,1000,32,2789627,330,141.285
F,5,2649613,silence.wav,None,1000,32,2791627,329,143.285
F,5,2649613,sinestep7.wav,None,1000,32,2793628,340,145.285
F,5,2649613,sinestep5.wav,None,1000,32,2795628,339,147.285
F,5,2649613,vowelstep1.wav,None,1000,32,2797628,338,149.285
F,5,2649613,sinestep7.wav,None,1000,32,2799628,347,151.285
F,5,2649613,silence.wav,None,1000,32,2801628,329,153.285
F,5,2649613,sinestep3_catch.wav,1,235,32,2803628,328,155.285
F,5,2649613,vowelstep5.wav,None,1000,32,2805628,1093,157.285
F,5,2649613,sinestep3.wav,None,1000,32,2807628,338,159.285
F,5,2649613,vowelstep5.wav,None,1000,32,2809627,338,161.285
F,5,2649613,sinestep3.wav,None,1000,32,2811628,337,163.285
F,5,2649613,vowelstep3.wav,None,1000,32,2813628,318,165.285
F,5,2649613,vowelstep1.wav,None,1000,32,2815628,328,167.285
F,5,2649613,sinestep5.wav,None,1000,32,2817628,328,169.285
F,5,2649613,vowelstep5.wav,None,1000,32,2819628,328,171.285
F,5,2649613,vowelstep1.wav,None,1000,32,2821628,337,173.285
F,5,2649613,vowelstep1.wav,None,1000,32,2823628,337,175.285
F,5,2649613,sinestep7.wav,None,1000,32,2825628,336,177.285
F,5,2649613,vowelstep1.wav,None,1000,32,2827629,348,179.285
F,5,2649613,sinestep5.wav,None,1000,32,2829629,327,181.285
F,5,2649613,vowelstep7.wav,None,1000,32,2831629,327,183.285
F,5,2649613,sinestep1.wav,None,1000,32,2833628,327,185.285
F,5,2649613,vowelstep7.wav,None,1000,32,2835628,337,187.285
F,5,2649613,sinestep5.wav,None,1000,32,2837628,337,189.285
F,5,2649613,vowelstep5.wav,None,1000,32,2839628,336,191.285
F,5,2649613,silence.wav,None,1000,32,2841628,347,193.285
F,5,2649613,sinestep7.wav,None,1000,32,2843628,327,195.285
F,5,2649613,vowelstep5.wav,None,1000,32,2845629,327,197.285
F,5,2649613,vowelstep7.wav,None,1000,32,2847629,326,199.285
F,5,2649613,silence.wav,None,1000,32,2849629,333,201.285
F,5,2649613,vowelstep1.wav,None,1000,32,2851629,336,203.285
F,5,2649613,vowelstep7.wav,None,1000,32,2853629,334,205.285
F,5,2649613,vowelstep7.wav,None,1000,32,2855629,345,207.285
F,5,2649613,vowelstep3.wav,None,1000,32,2857628,315,209.285
F,5,2649613,vowelstep3.wav,None,1000,32,2859628,326,211.285
F,5,2649613,silence.wav,None,1000,32,2861628,326,213.285
F,5,2649613,sinestep7.wav,None,1000,32,2863629,335,215.285
F,5,2649613,sinestep1.wav,None,1000,32,2865629,333,217.285
F,5,2649613,silence.wav,None,1000,32,2867629,334,219.285
F,5,2649613,vowelstep1.wav,None,1000,32,2869629,333,221.285
F,5,2649613,sinestep5_catch.wav,1,476,32,2871629,344,223.285
F,5,2649613,sinestep1.wav,None,1000,32,2873629,844,225.285
F,5,2649613,silence.wav,None,1000,32,2875629,325,227.285
F,5,2649613,sinestep7.wav,None,1000,32,2877629,322,229.285
F,5,2649613,sinestep7.wav,None,1000,32,2879628,332,231.285
F,5,2649613,silence.wav,None,1000,32,2881629,331,233.285
F,5,2649613,vowelstep5.wav,None,1000,32,2883629,343,235.285
F,5,2649613,sinestep7.wav,None,1000,32,2885629,312,237.285
F,5,2649613,sinestep5.wav,None,1000,32,2887629,323,239.285
F,5,2649613,sinestep5.wav,None,1000,32,2889629,323,241.285
F,5,2649613,silence.wav,None,1000,32,2891629,332,243.285
F,5,2649613,vowelstep3.wav,None,1000,32,2893629,333,245.285
F,5,2649613,vowelstep3.wav,None,1000,32,2895629,332,247.285
F,5,2649613,silence.wav,None,1000,32,2897630,333,249.285
F,5,2649613,sinestep1.wav,None,1000,32,2899630,322,251.285
F,5,2649613,sinestep1.wav,None,1000,32,2901630,321,253.285
F,5,2649613,vowelstep5.wav,None,1000,32,2903629,322,255.285
F,5,2649613,silence.wav,None,1000,32,2905629,321,257.285
F,5,2649613,sinestep5.wav,None,1000,32,2907629,330,259.285
F,5,2649613,sinestep5.wav,None,1000,32,2909629,332,261.285
F,5,2649613,sinestep5.wav,None,1000,32,2911629,342,263.285
F,5,2649613,sinestep7.wav,None,1000,32,2913629,313,265.285
F,5,2649613,sinestep7_catch.wav,1,269,32,2915630,322,267.285
F,5,2649613,sinestep7_catch.wav,1,167,32,2917630,1051,269.285
F,5,2649613,sinestep1.wav,None,1000,32,2919630,1162,271.285
F,5,2649613,vowelstep7.wav,None,1000,32,2921630,330,273.285
F,5,2649613,sinestep3.wav,None,1000,32,2923630,331,275.285
F,5,2649613,sinestep3.wav,None,1000,32,2925629,330,277.285
F,5,2649613,silence.wav,None,1000,32,2927629,310,279.285
F,5,2649613,sinestep5_catch.wav,1,377,32,2929629,320,281.285
F,5,2649613,sinestep5.wav,None,1000,32,2931629,941,283.285
F,5,2649613,silence.wav,None,1000,32,2933630,320,285.285
F,5,2649613,vowelstep5.wav,None,1000,32,2935630,329,287.285
F,5,2649613,silence.wav,None,1000,32,2937630,330,289.285
F,5,2649613,sinestep1.wav,None,1000,32,2939630,329,291.285
F,5,2649613,sinestep3.wav,None,1000,32,2941630,339,293.285
F,5,2649613,vowelstep3.wav,None,1000,32,2943630,319,295.285
F,5,2649613,silence.wav,None,1000,32,2945630,320,297.285
F,5,2649613,sinestep5.wav,None,1000,32,2947630,320,299.285
F,5,2649613,vowelstep5.wav,None,1000,32,2949629,319,301.285
F,5,2649613,vowelstep5.wav,None,1000,32,2951630,328,303.285
F,5,2649613,vowelstep1.wav,None,1000,32,2953630,328,305.285
F,5,2649613,sinestep3.wav,None,1000,32,2955630,309,307.285
F,5,2649613,silence.wav,None,1000,32,2957630,318,309.285
F,5,2649613,sinestep3_catch.wav,1,111,32,2959630,318,311.285
F,5,2649613,vowelstep1.wav,None,1000,32,2961630,1207,313.285
F,5,2649613,vowelstep7.wav,None,1000,32,2963630,328,315.285
F,5,2649613,vowelstep7.wav,None,1000,32,2965630,329,317.285
F,5,2649613,vowelstep1.wav,None,1000,32,2967631,328,319.285
J,6,3030988,sinestep5_catch.wav,1,492,32,3030998,0,1.285
J,6,3030988,sinestep5.wav,None,1000,32,3032998,854,3.285
J,6,3030988,sinestep3.wav,None,1000,32,3034997,343,5.285
J,6,3030988,sinestep1.wav,None,1000,32,3036997,330,7.285
J,6,3030988,sinestep7.wav,None,1000,32,3038998,328,9.285
J,6,3030988,vowelstep3.wav,None,1000,32,3040998,328,11.285
J,6,3030988,sinestep1.wav,None,1000,32,3042998,338,13.285
J,6,3030988,vowelstep5.wav,None,1000,32,3044998,338,15.285
J,6,3030988,vowelstep3.wav,None,1000,32,3046998,338,17.285
J,6,3030988,vowelstep1.wav,None,1000,32,3048998,348,19.285
J,6,3030988,vowelstep1.wav,None,1000,32,3050998,327,21.285
J,6,3030988,sinestep3.wav,None,1000,32,3052998,328,23.285
J,6,3030988,silence.wav,None,1000,32,3054999,328,25.285
J,6,3030988,vowelstep7.wav,None,1000,32,3056999,338,27.285
J,6,3030988,sinestep3.wav,None,1000,32,3058998,337,29.285
J,6,3030988,sinestep7.wav,None,1000,32,3060998,337,31.285
J,6,3030988,silence.wav,None,1000,32,3062998,347,33.285
J,6,3030988,vowelstep5.wav,None,1000,32,3064998,328,35.285
J,6,3030988,sinestep1.wav,None,1000,32,3066998,328,37.285
J,6,3030988,sinestep1_catch.wav,1,225,32,3068998,327,39.285
J,6,3030988,sinestep7.wav,None,1000,32,3070998,1111,41.285
J,6,3030988,vowelstep7.wav,None,1000,32,3072999,339,43.285
J,6,3030988,sinestep3_catch.wav,1,210,32,3074999,335,45.285
J,6,3030988,vowelstep3.wav,None,1000,32,3076999,1136,47.285
J,6,3030988,vowelstep7.wav,None,1000,32,3078999,316,49.285
J,6,3030988,sinestep1.wav,None,1000,32,3080998,326,51.285
J,6,3030988,vowelstep3.wav,None,1000,32,3082998,326,53.285
J,6,3030988,vowelstep1.wav,None,1000,32,3084998,336,55.285
J,6,3030988,sinestep5.wav,None,1000,32,3086998,336,57.285
J,6,3030988,sinestep5_catch.wav,1,262,32,3088998,337,59.285
J,6,3030988,sinestep5.wav,None,1000,32,3090999,1073,61.285
J,6,3030988,vowelstep7.wav,None,1000,32,3092999,326,63.285
J,6,3030988,sinestep7.wav,None,1000,32,3094999,325,65.285
J,6,3030988,vowelstep1.wav,None,1000,32,3096999,325,67.285
J,6,3030988,sinestep7_catch.wav,1,348,32,3098999,335,69.285
J,6,3030988,silence.wav,None,1000,32,3100999,985,71.285
J,6,3030988,vowelstep5.wav,None,1000,32,3102999,335,73.285
J,6,3030988,sinestep5.wav,None,1000,32,3104998,346,75.285
J,6,3030988,sinestep5.wav,None,1000,32,3106998,325,77.285
J,6,3030988,vowelstep3.wav,None,1000,32,3108999,325,79.285
J,6,3030988,vowelstep5.wav,None,1000,32,3110999,324,81.285
J,6,3030988,sinestep3.wav,None,1000,32,3112999,335,83.285
J,6,3030988,silence.wav,None,1000,32,3114999,334,85.285
J,6,3030988,vowelstep3.wav,None,1000,32,3116999,334,87.285
J,6,3030988,vowelstep7.wav,None,1000,32,3118999,334,89.285
J,6,3030988,silence.wav,None,1000,32,3120999,324,91.285
J,6,3030988,sinestep3.wav,None,1000,32,3122999,324,93.285
J,6,3030988,silence.wav,None,1000,32,3125000,324,95.285
J,6,3030988,sinestep1.wav,None,1000,32,3126999,323,97.285
J,6,3030988,sinestep5_catch.wav,1,273,32,3128999,334,99.285
J,6,3030988,sinestep7.wav,None,1000,32,3130999,1056,101.285
J,6,3030988,sinestep5.wav,None,1000,32,3132999,333,103.285
J,6,3030988,sinestep5.wav,None,1000,32,3134999,343,105.285
J,6,3030988,sinestep3.wav,None,1000,32,3136999,343,107.285
J,6,3030988,sinestep3_catch.wav,1,226,32,3138999,353,109.285
J,6,3030988,sinestep3.wav,None,1000,32,3140999,1096,111.285
J,6,3030988,silence.wav,None,1000,32,3143000,333,113.285
J,6,3030988,sinestep1.wav,None,1000,32,3145000,332,115.285
J,6,3030988,silence.wav,None,1000,32,3147000,332,117.285
J,6,3030988,vowelstep3.wav,None,1000,32,3149000,343,119.285
J,6,3030988,vowelstep5.wav,None,1000,32,3150999,322,121.285
J,6,3030988,vowelstep7.wav,None,1000,32,3152999,342,123.285
J,6,3030988,silence.wav,None,1000,32,3154999,352,125.285
J,6,3030988,sinestep1.wav,None,1000,32,3156999,332,127.285
J,6,3030988,sinestep3.wav,None,1000,32,3158999,332,129.285
J,6,3030988,sinestep7.wav,None,1000,32,3161000,332,131.285
J,6,3030988,silence.wav,None,1000,32,3163000,341,133.285
J,6,3030988,sinestep1.wav,None,1000,32,3165000,340,135.285
J,6,3030988,vowelstep7.wav,None,1000,32,3167000,341,137.285
J,6,3030988,sinestep5.wav,None,1000,32,3169000,320,139.285
J,6,3030988,vowelstep1.wav,None,1000,32,3171000,331,141.285
J,6,3030988,vowelstep7.wav,None,1000,32,3173000,331,143.285
J,6,3030988,vowelstep3.wav,None,1000,32,3174999,331,145.285
J,6,3030988,vowelstep3.wav,None,1000,32,3176999,339,147.285
J,6,3030988,sinestep7.wav,None,1000,32,3179000,339,149.285
J,6,3030988,vowelstep5.wav,None,1000,32,3181000,341,151.285
J,6,3030988,silence.wav,None,1000,32,3183000,349,153.285
J,6,3030988,sinestep1.wav,None,1000,32,3185000,330,155.285
J,6,3030988,sinestep3.wav,None,1000,32,3187000,330,157.285
J,6,3030988,silence.wav,None,1000,32,3189000,330,159.285
J,6,3030988,sinestep1.wav,None,1000,32,3191000,340,161.285
J,6,3030988,vowelstep7.wav,None,1000,32,3193000,340,163.285
J,6,3030988,vowelstep7.wav,None,1000,32,3195001,340,165.285
J,6,3030988,sinestep1_catch.wav,1,357,32,3197000,349,167.285
J,6,3030988,vowelstep1_catch.wav,1,337,32,3199000,971,169.285
J,6,3030988,vowelstep1.wav,None,1000,32,3201000,993,171.285
J,6,3030988,vowelstep7.wav,None,1000,32,3203000,329,173.285
J,6,3030988,sinestep1.wav,None,1000,32,3205000,339,175.285
J,6,3030988,vowelstep5.wav,None,1000,32,3207000,339,177.285
J,6,3030988,vowelstep5.wav,None,1000,32,3209000,339,179.285
J,6,3030988,sinestep5.wav,None,1000,32,3211000,348,181.285
J,6,3030988,sinestep7.wav,None,1000,32,3213001,329,183.285
J,6,3030988,sinestep7.wav,None,1000,32,3215001,328,185.285
J,6,3030988,sinestep1.wav,None,1000,32,3217001,327,187.285
J,6,3030988,vowelstep1.wav,None,1000,32,3219001,338,189.285
J,6,3030988,silence.wav,None,1000,32,3221000,339,191.285
J,6,3030988,sinestep5.wav,None,1000,32,3223000,336,193.285
J,6,3030988,vowelstep5.wav,None,1000,32,3225000,338,195.285
J,6,3030988,vowelstep1.wav,None,1000,32,3227000,328,197.285
J,6,3030988,vowelstep1.wav,None,1000,32,3229000,328,199.285
J,6,3030988,sinestep3.wav,None,1000,32,3231001,328,201.285
J,6,3030988,sinestep3.wav,None,1000,32,3233001,327,203.285
J,6,3030988,silence.wav,None,1000,32,3235001,337,205.285
J,6,3030988,sinestep5.wav,None,1000,32,3237001,337,207.285
J,6,3030988,vowelstep1.wav,None,1000,32,3239001,348,209.285
J,6,3030988,vowelstep5.wav,None,1000,32,3241001,317,211.285
J,6,3030988,vowelstep3.wav,None,1000,32,3243001,327,213.285
J,6,3030988,vowelstep3.wav,None,1000,32,3245000,327,215.285
J,6,3030988,silence.wav,None,1000,32,3247000,337,217.285
J,6,3030988,sinestep1.wav,None,1000,32,3249001,336,219.285
J,6,3030988,vowelstep3.wav,None,1000,32,3251001,336,221.285
J,6,3030988,sinestep7.wav,None,1000,32,3253001,336,223.285
J,6,3030988,vowelstep7.wav,None,1000,32,3255001,326,225.285
J,6,3030988,silence.wav,None,1000,32,3257001,326,227.285
J,6,3030988,vowelstep5.wav,None,1000,32,3259001,326,229.285
J,6,3030988,silence.wav,None,1000,32,3261001,326,231.285
J,6,3030988,sinestep3.wav,None,1000,32,3263001,336,233.285
J,6,3030988,vowelstep5.wav,None,1000,32,3265002,335,235.285
J,6,3030988,vowelstep3.wav,None,1000,32,3267001,344,237.285
J,6,3030988,vowelstep5.wav,None,1000,32,3269001,344,239.285
J,6,3030988,vowelstep7.wav,None,1000,32,3271001,325,241.285
J,6,3030988,vowelstep1.wav,None,1000,32,3273001,324,243.285
J,6,3030988,sinestep7.wav,None,1000,32,3275001,325,245.285
J,6,3030988,sinestep7.wav,None,1000,32,3277001,335,247.285
J,6,3030988,silence.wav,None,1000,32,3279001,334,249.285
J,6,3030988,vowelstep1.wav,None,1000,32,3281001,335,251.285
J,6,3030988,vowelstep3_catch.wav,1,281,32,3283002,314,253.285
J,6,3030988,vowelstep1.wav,None,1000,32,3285002,1040,255.285
J,6,3030988,vowelstep5_catch.wav,1,282,32,3287002,323,257.285
J,6,3030988,silence.wav,None,1000,32,3289002,1039,259.285
J,6,3030988,sinestep5.wav,None,1000,32,3291001,334,261.285
J,6,3030988,vowelstep1.wav,None,1000,32,3293001,333,263.285
J,6,3030988,sinestep5.wav,None,1000,32,3295001,332,265.285
J,6,3030988,vowelstep3.wav,None,1000,32,3297001,334,267.285
J,6,3030988,sinestep5.wav,None,1000,32,3299001,323,269.285
J,6,3030988,sinestep7.wav,None,1000,32,3301002,324,271.285
J,6,3030988,silence.wav,None,1000,32,3303002,322,273.285
J,6,3030988,vowelstep7_catch.wav,1,374,32,3305002,332,275.285
J,6,3030988,sinestep3.wav,None,1000,32,3307002,956,277.285
J,6,3030988,vowelstep5.wav,None,1000,32,3309002,333,279.285
J,6,3030988,silence.wav,None,1000,32,3311002,313,281.285
J,6,3030988,silence.wav,None,1000,32,3313001,323,283.285
J,6,3030988,silence.wav,None,1000,32,3315001,323,285.285
J,6,3030988,vowelstep7.wav,None,1000,32,3317001,322,287.285
J,6,3030988,sinestep3.wav,None,1000,32,3319002,331,289.285
J,6,3030988,vowelstep5_catch.wav,1,302,32,3321002,331,291.285
J,6,3030988,silence.wav,None,1000,32,3323002,1029,293.285
J,6,3030988,sinestep7.wav,None,1000,32,3325002,322,295.285
J,6,3030988,vowelstep1.wav,None,1000,32,3327002,321,297.285
J,6,3030988,silence.wav,None,1000,32,3329002,322,299.285
J,6,3030988,sinestep1.wav,None,1000,32,3331002,321,301.285
J,6,3030988,sinestep5.wav,None,1000,32,3333002,322,303.285
J,6,3030988,vowelstep5.wav,None,1000,32,3335003,329,305.285
J,6,3030988,vowelstep3.wav,None,1000,32,3337002,330,307.285
J,6,3030988,sinestep7.wav,None,1000,32,3339002,340,309.285
J,6,3030988,vowelstep7.wav,None,1000,32,3341002,321,311.285
J,6,3030988,vowelstep3_catch.wav,1,300,32,3343002,320,313.285
J,6,3030988,vowelstep1_catch.wav,1,289,32,3345002,1020,315.285
J,6,3030988,sinestep3.wav,None,1000,32,3347002,1041,317.285
J,6,3030988,sinestep1.wav,None,1000,32,3349002,331,319.285
B,7,3408370,vowelstep5.wav,None,1000,32,3408387,0,1.285
B,7,3408370,silence.wav,None,1000,32,3410387,318,3.285
B,7,3408370,sinestep7.wav,None,1000,32,3412387,318,5.285
B,7,3408370,vowelstep1_catch.wav,1,324,32,3414386,329,7.285
B,7,3408370,vowelstep7.wav,None,1000,32,3416386,1004,9.285
B,7,3408370,vowelstep3.wav,None,1000,32,3418386,329,11.285
B,7,3408370,vowelstep7.wav,None,1000,32,3420386,308,13.285
B,7,3408370,vowelstep5.wav,None,1000,32,3422387,317,15.285
B,7,3408370,vowelstep7.wav,None,1000,32,3424387,317,17.285
B,7,3408370,vowelstep3.wav,None,1000,32,3426387,317,19.285
B,7,3408370,silence.wav,None,1000,32,3428387,327,21.285
B,7,3408370,silence.wav,None,1000,32,3430387,327,23.285
B,7,3408370,sinestep5.wav,None,1000,32,3432387,328,25.285
B,7,3408370,sinestep1.wav,None,1000,32,3434387,337,27.285
B,7,3408370,vowelstep7.wav,None,1000,32,3436387,317,29.285
B,7,3408370,sinestep5.wav,None,1000,32,3438386,316,31.285
B,7,3408370,vowelstep1.wav,None,1000,32,3440387,317,33.285
B,7,3408370,vowelstep7.wav,None,1000,32,3442387,326,35.285
B,7,3408370,vowelstep3.wav,None,1000,32,3444387,326,37.285
B,7,3408370,sinestep5.wav,None,1000,32,3446387,326,39.285
B,7,3408370,vowelstep1.wav,None,1000,32,3448387,336,41.285
B,7,3408370,sinestep3.wav,None,1000,32,3450387,336,43.285
B,7,3408370,vowelstep5.wav,None,1000,32,3452387,336,45.285
B,7,3408370,vowelstep7.wav,None,1000,32,3454387,346,47.285
B,7,3408370,vowelstep3.wav,None,1000,32,3456387,326,49.285
B,7,3408370,sinestep7.wav,None,1000,32,3458388,326,51.285
B,7,3408370,sinestep3.wav,None,1000,32,3460388,325,53.285
B,7,3408370,sinestep1.wav,None,1000,32,3462387,324,55.285
B,7,3408370,sinestep1.wav,None,1000,32,3464387,335,57.285
B,7,3408370,sinestep5.wav,None,1000,32,3466387,334,59.285
B,7,3408370,vowelstep5.wav,None,1000,32,3468387,346,61.285
B,7,3408370,vowelstep3_catch.wav,1,222,32,3470387,345,63.285
B,7,3408370,vowelstep7.wav,None,1000,32,3472387,1102,65.285
B,7,3408370,sinestep1.wav,None,1000,32,3474387,325,67.285
B,7,3408370,vowelstep5.wav,None,1000,32,3476388,334,69.285
B,7,3408370,vowelstep5_catch.wav,1,254,32,3478388,334,71.285
B,7,3408370,vowelstep7.wav,None,1000,32,3480388,1080,73.285
B,7,3408370,sinestep3.wav,None,1000,32,3482388,345,75.285
B,7,3408370,vowelstep7_catch.wav,1,323,32,3484387,314,77.285
B,7,3408370,sinestep5.wav,None,1000,32,3486387,989,79.285
B,7,3408370,vowelstep5.wav,None,1000,32,3488387,324,81.285
B,7,3408370,silence.wav,None,1000,32,3490387,331,83.285
B,7,3408370,silence.wav,None,1000,32,3492388,330,85.285
B,7,3408370,vowelstep3.wav,None,1000,32,3494388,329,87.285
B,7,3408370,silence.wav,None,1000,32,3496388,330,89.285
B,7,3408370,sinestep1.wav,None,1000,32,3498388,307,91.285
B,7,3408370,sinestep1.wav,None,1000,32,3500388,323,93.285
B,7,3408370,sinestep5.wav,None,1000,32,3502388,322,95.285
B,7,3408370,vowelstep7.wav,None,1000,32,3504388,323,97.285
B,7,3408370,sinestep5.wav,None,1000,32,3506388,333,99.285
B,7,3408370,sinestep5.wav,None,1000,32,3508387,333,101.285
B,7,3408370,silence.wav,None,1000,32,3510388,333,103.285
B,7,3408370,vowelstep1.wav,None,1000,32,3512388,323,105.285
B,7,3408370,silence.wav,None,1000,32,3514388,323,107.285
B,7,3408370,sinestep1.wav,None,1000,32,3516388,321,109.285
B,7,3408370,vowelstep7.wav,None,1000,32,3518388,332,111.285
B,7,3408370,silence.wav,None,1000,32,3520388,329,113.285
B,7,3408370,sinestep1.wav,None,1000,32,3522388,332,115.285
B,7,3408370,vowelstep3.wav,None,1000,32,3524388,332,117.285
B,7,3408370,vowelstep5.wav,None,1000,32,3526388,322,119.285
B,7,3408370,silence.wav,None,1000,32,3528389,322,121.285
B,7,3408370,sinestep3.wav,None,1000,32,3530388,321,123.285
B,7,3408370,sinestep5.wav,None,1000,32,3532388,321,125.285
B,7,3408370,silence.wav,None,1000,32,3534388,331,127.285
B,7,3408370,vowelstep5.wav,None,1000,32,3536388,331,129.285
B,7,3408370,sinestep3.wav,None,1000,32,3538388,331,131.285
B,7,3408370,sinestep5.wav,None,1000,32,3540388,340,133.285
B,7,3408370,sinestep5.wav,None,1000,32,3542388,321,135.285
B,7,3408370,sinestep7.wav,None,1000,32,3544389,321,137.285
B,7,3408370,sinestep7.wav,None,1000,32,3546389,317,139.285
B,7,3408370,vowelstep5.wav,None,1000,32,3548389,330,141.285
B,7,3408370,sinestep1.wav,None,1000,32,3550389,329,143.285
B,7,3408370,vowelstep7.wav,None,1000,32,3552389,329,145.285
B,7,3408370,sinestep7.wav,None,1000,32,3554388,310,147.285
B,7,3408370,vowelstep5.wav,None,1000,32,3556388,320,149.285
B,7,3408370,vowelstep1.wav,None,1000,32,3558388,320,151.285
B,7,3408370,sinestep3.wav,None,1000,32,3560388,320,153.285
B,7,3408370,silence.wav,None,1000,32,3562389,329,155.285
B,7,3408370,silence.wav,None,1000,32,3564389,329,157.285
B,7,3408370,sinestep7_catch.wav,1,367,32,3566389,329,159.285
B,7,3408370,vowelstep5.wav,None,1000,32,3568389,959,161.285
B,7,3408370,sinestep7.wav,None,1000,32,3570389,316,163.285
B,7,3408370,vowelstep5.wav,None,1000,32,3572389,318,165.285
B,7,3408370,vowelstep3.wav,None,1000,32,3574389,319,167.285
B,7,3408370,silence.wav,None,1000,32,3576388,318,169.285
B,7,3408370,sinestep3.wav,None,1000,32,3578388,329,171.285
B,7,3408370,sinestep7_catch.wav,1,265,32,3580373,329,173.285
B,7,3408370,sinestep3.wav,None,1000,32,3582389,1072,175.285
B,7,3408370,sinestep5_catch.wav,1,302,32,3584389,317,177.285
B,7,3408370,vowelstep5.wav,None,1000,32,3586389,1015,179.285
B,7,3408370,silence.wav,None,1000,32,3588389,317,181.285
B,7,3408370,sinestep7.wav,None,1000,32,3590389,328,183.285
B,7,3408370,silence.wav,None,1000,32,3592389,327,185.285
B,7,3408370,sinestep3.wav,None,1000,32,3594389,327,187.285
B,7,3408370,silence.wav,None,1000,32,3596389,337,189.285
B,7,3408370,vowelstep7.wav,None,1000,32,3598373,316,191.285
B,7,3408370,vowelstep3.wav,None,1000,32,3600389,337,193.285
B,7,3408370,vowelstep3.wav,None,1000,32,3602389,317,195.285
B,7,3408370,sinestep7.wav,None,1000,32,3604389,316,197.285
B,7,3408370,sinestep7.wav,None,1000,32,3606389,327,199.285
B,7,3408370,sinestep3.wav,None,1000,32,3608389,327,201.285
B,7,3408370,sinestep3_catch.wav,1,274,32,3610389,337,203.285
B,7,3408370,sinestep1.wav,None,1000,32,3612389,1062,205.285
B,7,3408370,sinestep1.wav,None,1000,32,3614373,316,207.285
B,7,3408370,sinestep3.wav,None,1000,32,3616373,335,209.285
B,7,3408370,silence.wav,None,1000,32,3618390,345,211.285
B,7,3408370,silence.wav,None,1000,32,3620390,326,213.285
B,7,3408370,sinestep5_catch.wav,1,416,32,3622390,324,215.285
B,7,3408370,sinestep7.wav,None,1000,32,3624389,904,217.285
B,7,3408370,sinestep7.wav,None,1000,32,3626373,306,219.285
B,7,3408370,vowelstep3.wav,None,1000,32,3628389,334,221.285
B,7,3408370,sinestep1_catch.wav,1,243,32,3630389,315,223.285
B,7,3408370,vowelstep5.wav,None,1000,32,3632373,1071,225.285
B,7,3408370,sinestep1.wav,None,1000,32,3634373,345,227.285
B,7,3408370,vowelstep1.wav,None,1000,32,3636390,345,229.285
B,7,3408370,vowelstep1.wav,None,1000,32,3638390,325,231.285
B,7,3408370,sinestep5.wav,None,1000,32,3640390,334,233.285
B,7,3408370,silence.wav,None,1000,32,3642373,314,235.285
B,7,3408370,silence.wav,None,1000,32,3644373,334,237.285
B,7,3408370,vowelstep1.wav,None,1000,32,3646389,344,239.285
B,7,3408370,vowelstep1.wav,None,1000,32,3648389,325,241.285
B,7,3408370,silence.wav,None,1000,32,3650374,324,243.285
B,7,3408370,vowelstep1_catch.wav,1,353,32,3652374,323,245.285
B,7,3408370,sinestep7.wav,None,1000,32,3654390,979,247.285
B,7,3408370,sinestep1.wav,None,1000,32,3656390,313,249.285
B,7,3408370,vowelstep1.wav,None,1000,32,3658373,314,251.285
B,7,3408370,vowelstep3.wav,None,1000,32,3660373,343,253.285
B,7,3408370,sinestep3.wav,None,1000,32,3662373,343,255.285
B,7,3408370,silence.wav,None,1000,32,3664373,343,257.285
B,7,3408370,vowelstep3.wav,None,1000,32,3666390,322,259.285
B,7,3408370,silence.wav,None,1000,32,3668374,329,261.285
B,7,3408370,vowelstep3.wav,None,1000,32,3670374,327,263.285
B,7,3408370,sinestep5.wav,None,1000,32,3672390,333,265.285
B,7,3408370,vowelstep3_catch.wav,1,289,32,3674374,311,267.285
B,7,3408370,sinestep3.wav,None,1000,32,3676374,1052,269.285
B,7,3408370,sinestep1.wav,None,1000,32,3678373,342,271.285
B,7,3408370,vowelstep3.wav,None,1000,32,3680373,339,273.285
B,7,3408370,vowelstep1.wav,None,1000,32,3682373,333,275.285
B,7,3408370,vowelstep5_catch.wav,1,249,32,3684374,332,277.285
B,7,3408370,vowelstep1.wav,None,1000,32,3686374,1081,279.285
B,7,3408370,vowelstep5.wav,None,1000,32,3688374,342,281.285
B,7,3408370,sinestep7.wav,None,1000,32,3690374,341,283.285
B,7,3408370,vowelstep7.wav,None,1000,32,3692374,341,285.285
B,7,3408370,vowelstep1_catch.wav,1,306,32,3694374,351,287.285
B,7,3408370,sinestep1.wav,None,1000,32,3696374,1021,289.285
B,7,3408370,vowelstep1.wav,None,1000,32,3698374,331,291.285
B,7,3408370,sinestep5.wav,None,1000,32,3700373,331,293.285
B,7,3408370,vowelstep7.wav,None,1000,32,3702374,341,295.285
B,7,3408370,sinestep7.wav,None,1000,32,3704374,340,297.285
B,7,3408370,vowelstep7_catch.wav,1,219,32,3706374,340,299.285
B,7,3408370,sinestep3.wav,None,1000,32,3708374,1120,301.285
B,7,3408370,vowelstep3.wav,None,1000,32,3710374,320,303.285
B,7,3408370,sinestep5.wav,None,1000,32,3712374,330,305.285
B,7,3408370,vowelstep1.wav,None,1000,32,3714374,330,307.285
B,7,3408370,vowelstep7.wav,None,1000,32,3716374,339,309.285
B,7,3408370,vowelstep1.wav,None,1000,32,3718374,341,311.285
B,7,3408370,sinestep7.wav,None,1000,32,3720375,338,313.285
B,7,3408370,sinestep3.wav,None,1000,32,3722375,349,315.285
B,7,3408370,silence.wav,None,1000,32,3724374,329,317.285
B,7,3408370,vowelstep1.wav,None,1000,32,3726374,328,319.285
E,8,3788655,vowelstep7.wav,None,1000,32,3788658,0,1.285
E,8,3788655,sinestep3.wav,None,1000,32,3790659,341,3.285
E,8,3788655,sinestep5.wav,None,1000,32,3792659,350,5.285
E,8,3788655,sinestep1.wav,None,1000,32,3794659,320,7.285
E,8,3788655,sinestep5.wav,None,1000,32,3796675,329,9.285
E,8,3788655,silence.wav,None,1000,32,3798659,331,11.285
E,8,3788655,vowelstep1.wav,None,1000,32,3800658,339,13.285
E,8,3788655,vowelstep7.wav,None,1000,32,3802658,340,15.285
E,8,3788655,vowelstep1.wav,None,1000,32,3804658,340,17.285
E,8,3788655,sinestep1_catch.wav,1,384,32,3806659,340,19.285
E,8,3788655,vowelstep5.wav,None,1000,32,3808659,943,21.285
E,8,3788655,sinestep5.wav,None,1000,32,3810659,329,23.285
E,8,3788655,vowelstep5.wav,None,1000,32,3812659,328,25.285
E,8,3788655,vowelstep3.wav,None,1000,32,3814659,331,27.285
E,8,3788655,sinestep1.wav,None,1000,32,3816659,339,29.285
E,8,3788655,vowelstep5.wav,None,1000,32,3818659,339,31.285
E,8,3788655,silence.wav,None,1000,32,3820659,339,33.285
E,8,3788655,silence.wav,None,1000,32,3822659,319,35.285
E,8,3788655,sinestep3.wav,None,1000,32,3824659,329,37.285
E,8,3788655,sinestep3.wav,None,1000,32,3826659,328,39.285
E,8,3788655,sinestep3.wav,None,1000,32,3828659,337,41.285
E,8,3788655,sinestep1.wav,None,1000,32,3830659,338,43.285
E,8,3788655,vowelstep1.wav,None,1000,32,3832659,336,45.285
E,8,3788655,sinestep1.wav,None,1000,32,3834659,338,47.285
E,8,3788655,vowelstep7.wav,None,1000,32,3836659,347,49.285
E,8,3788655,vowelstep5.wav,None,1000,32,3838659,348,51.285
E,8,3788655,sinestep7.wav,None,1000,32,3840659,347,53.285
E,8,3788655,sinestep1.wav,None,1000,32,3842660,358,55.285
E,8,3788655,vowelstep5.wav,None,1000,32,3844660,337,57.285
E,8,3788655,sinestep3.wav,None,1000,32,3846660,337,59.285
E,8,3788655,vowelstep1.wav,None,1000,32,3848659,336,61.285
E,8,3788655,vowelstep5.wav,None,1000,32,3850659,347,63.285
E,8,3788655,vowelstep3.wav,None,1000,32,3852659,347,65.285
E,8,3788655,sinestep1.wav,None,1000,32,3854659,346,67.285
E,8,3788655,vowelstep3.wav,None,1000,32,3856659,326,69.285
E,8,3788655,silence.wav,None,1000,32,3858659,326,71.285
E,8,3788655,vowelstep3.wav,None,1000,32,3860660,335,73.285
E,8,3788655,sinestep3_catch.wav,1,289,32,3862660,336,75.285
E,8,3788655,sinestep3.wav,None,1000,32,3864660,1055,77.285
E,8,3788655,vowelstep3.wav,None,1000,32,3866660,346,79.285
E,8,3788655,vowelstep7.wav,None,1000,32,3868660,342,81.285
E,8,3788655,silence.wav,None,1000,32,3870659,345,83.285
E,8,3788655,sinestep3.wav,None,1000,32,3872659,335,85.285
E,8,3788655,silence.wav,None,1000,32,3874659,336,87.285
E,8,3788655,sinestep1.wav,None,1000,32,3876660,336,89.285
E,8,3788655,sinestep5_catch.wav,1,205,32,3878660,335,91.285
E,8,3788655,vowelstep3.wav,None,1000,32,3880660,1139,93.285
E,8,3788655,sinestep5.wav,None,1000,32,3882660,344,95.285
E,8,3788655,vowelstep7.wav,None,1000,32,3884660,355,97.285
E,8,3788655,sinestep1.wav,None,1000,32,3886660,325,99.285
E,8,3788655,sinestep5.wav,None,1000,32,3888660,334,101.285
E,8,3788655,sinestep5.wav,None,1000,32,3890660,335,103.285
E,8,3788655,vowelstep7.wav,None,1000,32,3892660,344,105.285
E,8,3788655,vowelstep3.wav,None,1000,32,3894660,345,107.285
E,8,3788655,vowelstep7.wav,None,1000,32,3896660,343,109.285
E,8,3788655,sinestep5.wav,None,1000,32,3898660,343,111.285
E,8,3788655,vowelstep3.wav,None,1000,32,3900660,330,113.285
E,8,3788655,vowelstep7.wav,None,1000,32,3902660,333,115.285
E,8,3788655,sinestep3.wav,None,1000,32,3904660,333,117.285
E,8,3788655,vowelstep7.wav,None,1000,32,3906660,334,119.285
E,8,3788655,silence.wav,None,1000,32,3908660,343,121.285
E,8,3788655,silence.wav,None,1000,32,3910660,344,123.285
E,8,3788655,sinestep7.wav,None,1000,32,3912661,353,125.285
E,8,3788655,sinestep7_catch.wav,1,325,32,3914661,352,127.285
E,8,3788655,sinestep7.wav,None,1000,32,3916660,1006,129.285
E,8,3788655,silence.wav,None,1000,32,3918660,333,131.285
E,8,3788655,sinestep7_catch.wav,1,202,32,3920660,333,133.285
E,8,3788655,sinestep7.wav,None,1000,32,3922660,1140,135.285
E,8,3788655,sinestep5_catch.wav,1,103,32,3924660,342,137.285
E,8,3788655,sinestep1.wav,None,1000,32,3926660,1239,139.285
E,8,3788655,sinestep1.wav,None,1000,32,3928660,352,141.285
E,8,3788655,sinestep1.wav,None,1000,32,3930661,331,143.285
E,8,3788655,sinestep3.wav,None,1000,32,3932661,332,145.285
E,8,3788655,vowelstep5.wav,None,1000,32,3934661,331,147.285
E,8,3788655,silence.wav,None,1000,32,3936661,341,149.285
E,8,3788655,sinestep3_catch.wav,1,225,32,3938661,342,151.285
E,8,3788655,silence.wav,None,1000,32,3940660,1115,153.285
E,8,3788655,sinestep7.wav,None,1000,32,3942660,352,155.285
E,8,3788655,sinestep5.wav,None,1000,32,3944660,332,157.285
E,8,3788655,silence.wav,None,1000,32,3946661,331,159.285
E,8,3788655,vowelstep5.wav,None,1000,32,3948661,329,161.285
E,8,3788655,vowelstep1.wav,None,1000,32,3950661,329,163.285
E,8,3788655,vowelstep3.wav,None,1000,32,3952661,340,165.285
E,8,3788655,sinestep5.wav,None,1000,32,3954661,340,167.285
E,8,3788655,sinestep7.wav,None,1000,32,3956661,351,169.285
E,8,3788655,vowelstep1.wav,None,1000,32,3958661,330,171.285
E,8,3788655,vowelstep7.wav,None,1000,32,3960661,330,173.285
E,8,3788655,sinestep3.wav,None,1000,32,3962660,331,175.285
E,8,3788655,silence.wav,None,1000,32,3964661,339,177.285
E,8,3788655,sinestep1_catch.wav,1,299,32,3966661,336,179.285
E,8,3788655,sinestep7.wav,None,1000,32,3968661,1039,181.285
E,8,3788655,vowelstep1.wav,None,1000,32,3970661,349,183.285
E,8,3788655,sinestep5.wav,None,1000,32,3972661,329,185.285
E,8,3788655,sinestep5.wav,None,1000,32,3974661,330,187.285
E,8,3788655,vowelstep1.wav,None,1000,32,3976661,328,189.285
E,8,3788655,sinestep7.wav,None,1000,32,3978661,339,191.285
E,8,3788655,sinestep3.wav,None,1000,32,3980661,339,193.285
E,8,3788655,sinestep7.wav,None,1000,32,3982662,339,195.285
E,8,3788655,silence.wav,None,1000,32,3984662,348,197.285
E,8,3788655,vowelstep1.wav,None,1000,32,3986661,318,199.285
E,8,3788655,sinestep1.wav,None,1000,32,3988661,324,201.285
E,8,3788655,vowelstep1.wav,None,1000,32,3990661,328,203.285
E,8,3788655,vowelstep1.wav,None,1000,32,3992661,338,205.285
E,8,3788655,vowelstep1_catch.wav,1,310,32,3994661,338,207.285
E,8,3788655,vowelstep1.wav,None,1000,32,3996661,1022,209.285
E,8,3788655,vowelstep1.wav,None,1000,32,3998661,338,211.285
E,8,3788655,silence.wav,None,1000,32,4000662,327,213.285
E,8,3788655,sinestep7.wav,None,1000,32,4002662,327,215.285
E,8,3788655,vowelstep7.wav,None,1000,32,4004662,327,217.285
E,8,3788655,vowelstep3_catch.wav,1,235,32,4006662,338,219.285
E,8,3788655,vowelstep5.wav,None,1000,32,4008662,1099,221.285
E,8,3788655,sinestep3.wav,None,1000,32,4010661,337,223.285
E,8,3788655,silence.wav,None,1000,32,4012661,336,225.285
E,8,3788655,sinestep1.wav,None,1000,32,4014661,325,227.285
E,8,3788655,sinestep5.wav,None,1000,32,4016662,327,229.285
E,8,3788655,sinestep5.wav,None,1000,32,4018662,326,231.285
E,8,3788655,sinestep3.wav,None,1000,32,4020662,327,233.285
E,8,3788655,sinestep5.wav,None,1000,32,4022662,336,235.285
E,8,3788655,vowelstep3.wav,None,1000,32,4024662,336,237.285
E,8,3788655,sinestep7.wav,None,1000,32,4026662,336,239.285
E,8,3788655,sinestep7.wav,None,1000,32,4028662,315,241.285
E,8,3788655,silence.wav,None,1000,32,4030662,326,243.285
E,8,3788655,sinestep3.wav,None,1000,32,4032661,325,245.285
E,8,3788655,sinestep3.wav,None,1000,32,4034662,336,247.285
E,8,3788655,vowelstep3.wav,None,1000,32,4036662,335,249.285
E,8,3788655,silence.wav,None,1000,32,4038662,335,251.285
E,8,3788655,sinestep7.wav,None,1000,32,4040662,335,253.285
E,8,3788655,silence.wav,None,1000,32,4042662,324,255.285
E,8,3788655,vowelstep7.wav,None,1000,32,4044662,324,257.285
E,8,3788655,vowelstep3.wav,None,1000,32,4046662,325,259.285
E,8,3788655,silence.wav,None,1000,32,4048662,325,261.285
E,8,3788655,vowelstep3.wav,None,1000,32,4050662,334,263.285
E,8,3788655,vowelstep1.wav,None,1000,32,4052663,334,265.285
E,8,3788655,vowelstep5.wav,None,1000,32,4054663,344,267.285
E,8,3788655,silence.wav,None,1000,32,4056662,314,269.285
E,8,3788655,vowelstep3.wav,None,1000,32,4058662,324,271.285
E,8,3788655,sinestep1.wav,None,1000,32,4060662,344,273.285
E,8,3788655,vowelstep5_catch.wav,1,215,32,4062662,353,275.285
E,8,3788655,sinestep7.wav,None,1000,32,4064662,1118,277.285
E,8,3788655,sinestep7.wav,None,1000,32,4066662,334,279.285
E,8,3788655,vowelstep7.wav,None,1000,32,4068662,333,281.285
E,8,3788655,silence.wav,None,1000,32,4070663,344,283.285
E,8,3788655,sinestep5.wav,None,1000,32,4072663,342,285.285
E,8,3788655,silence.wav,None,1000,32,4074663,323,287.285
E,8,3788655,silence.wav,None,1000,32,4076663,352,289.285
E,8,3788655,vowelstep5.wav,None,1000,32,4078663,333,291.285
E,8,3788655,vowelstep5.wav,None,1000,32,4080662,332,293.285
E,8,3788655,silence.wav,None,1000,32,4082662,333,295.285
E,8,3788655,vowelstep5.wav,None,1000,32,4084662,342,297.285
E,8,3788655,vowelstep7_catch.wav,1,328,32,4086663,341,299.285
E,8,3788655,vowelstep7_catch.wav,1,708,32,4088663,1013,301.285
E,8,3788655,vowelstep5.wav,None,1000,32,4090663,643,303.285
E,8,3788655,sinestep1.wav,None,1000,32,4092663,331,305.285
E,8,3788655,vowelstep3.wav,None,1000,32,4094663,286,307.285
E,8,3788655,vowelstep5_catch.wav,1,193,32,4096663,331,309.285
E,8,3788655,vowelstep7.wav,None,1000,32,4098663,1148,311.285
E,8,3788655,vowelstep5.wav,None,1000,32,4100663,341,313.285
E,8,3788655,vowelstep7.wav,None,1000,32,4102662,341,315.285
E,8,3788655,vowelstep1.wav,None,1000,32,4104663,341,317.285
E,8,3788655,vowelstep3_catch.wav,1,112,32,4106663,331,319.285
C,9,4163265,sinestep1.wav,None,1000,32,4163281,0,1.285
C,9,4163265,vowelstep1.wav,None,1000,32,4165280,327,3.285
C,9,4163265,sinestep1.wav,None,1000,32,4167280,334,5.285
C,9,4163265,sinestep1.wav,None,1000,32,4169280,318,7.285
C,9,4163265,vowelstep1.wav,None,1000,32,4171280,318,9.285
C,9,4163265,sinestep1.wav,None,1000,32,4173280,317,11.285
C,9,4163265,sinestep7.wav,None,1000,32,4175281,326,13.285
C,9,4163265,vowelstep7.wav,None,1000,32,4177281,326,15.285
C,9,4163265,vowelstep3.wav,None,1000,32,4179281,325,17.285
C,9,4163265,vowelstep5.wav,None,1000,32,4181281,336,19.285
C,9,4163265,silence.wav,None,1000,32,4183281,316,21.285
C,9,4163265,sinestep3.wav,None,1000,32,4185281,316,23.285
C,9,4163265,vowelstep5.wav,None,1000,32,4187280,316,25.285
C,9,4163265,sinestep1.wav,None,1000,32,4189280,326,27.285
C,9,4163265,vowelstep1.wav,None,1000,32,4191281,325,29.285
C,9,4163265,vowelstep7.wav,None,1000,32,4193281,323,31.285
C,9,4163265,vowelstep3.wav,None,1000,32,4195281,306,33.285
C,9,4163265,sinestep1.wav,None,1000,32,4197281,316,35.285
C,9,4163265,sinestep5.wav,None,1000,32,4199281,316,37.285
C,9,4163265,silence.wav,None,1000,32,4201281,316,39.285
C,9,4163265,vowelstep7.wav,None,1000,32,4203281,325,41.285
C,9,4163265,vowelstep5.wav,None,1000,32,4205281,326,43.285
C,9,4163265,sinestep5.wav,None,1000,32,4207281,325,45.285
C,9,4163265,silence.wav,None,1000,32,4209282,324,47.285
C,9,4163265,sinestep5.wav,None,1000,32,4211281,313,49.285
C,9,4163265,sinestep1.wav,None,1000,32,4213281,334,51.285
C,9,4163265,silence.wav,None,1000,32,4215281,344,53.285
C,9,4163265,vowelstep1.wav,None,1000,32,4217281,324,55.285
C,9,4163265,vowelstep1.wav,None,1000,32,4219281,324,57.285
C,9,4163265,sinestep1.wav,None,1000,32,4221281,324,59.285
C,9,4163265,silence.wav,None,1000,32,4223281,334,61.285
C,9,4163265,vowelstep5.wav,None,1000,32,4225281,334,63.285
C,9,4163265,vowelstep3.wav,None,1000,32,4227282,334,65.285
C,9,4163265,vowelstep3.wav,None,1000,32,4229282,332,67.285
C,9,4163265,vowelstep7.wav,None,1000,32,4231282,323,69.285
C,9,4163265,silence.wav,None,1000,32,4233282,322,71.285
C,9,4163265,vowelstep3.wav,None,1000,32,4235281,323,73.285
C,9,4163265,silence.wav,None,1000,32,4237281,333,75.285
C,9,4163265,sinestep5.wav,None,1000,32,4239281,333,77.285
C,9,4163265,vowelstep7.wav,None,1000,32,4241281,333,79.285
C,9,4163265,vowelstep1_catch.wav,1,323,32,4243281,343,81.285
C,9,4163265,vowelstep3.wav,None,1000,32,4245282,986,83.285
C,9,4163265,sinestep7.wav,None,1000,32,4247282,322,85.285
C,9,4163265,vowelstep3.wav,None,1000,32,4249282,322,87.285
C,9,4163265,sinestep1.wav,None,1000,32,4251282,331,89.285
C,9,4163265,sinestep7.wav,None,1000,32,4253282,332,91.285
C,9,4163265,sinestep7.wav,None,1000,32,4255282,332,93.285
C,9,4163265,sinestep3.wav,None,1000,32,4257281,332,95.285
C,9,4163265,vowelstep3_catch.wav,1,247,32,4259281,320,97.285
C,9,4163265,sinestep5.wav,None,1000,32,4261282,1073,99.285
C,9,4163265,sinestep5.wav,None,1000,32,4263282,321,101.285
C,9,4163265,vowelstep3.wav,None,1000,32,4265282,331,103.285
C,9,4163265,vowelstep5.wav,None,1000,32,4267282,330,105.285
C,9,4163265,sinestep1.wav,None,1000,32,4269282,331,107.285
C,9,4163265,sinestep3.wav,None,1000,32,4271282,340,109.285
C,9,4163265,vowelstep5.wav,None,1000,32,4273282,341,111.285
C,9,4163265,vowelstep7.wav,None,1000,32,4275282,320,113.285
C,9,4163265,vowelstep1.wav,None,1000,32,4277282,321,115.285
C,9,4163265,sinestep7.wav,None,1000,32,4279283,321,117.285
C,9,4163265,sinestep3.wav,None,1000,32,4281282,329,119.285
C,9,4163265,vowelstep1.wav,None,1000,32,4283282,326,121.285
C,9,4163265,vowelstep1.wav,None,1000,32,4285282,329,123.285
C,9,4163265,sinestep3.wav,None,1000,32,4287282,309,125.285
C,9,4163265,silence.wav,None,1000,32,4289282,315,127.285
C,9,4163265,silence.wav,None,1000,32,4291282,319,129.285
C,9,4163265,vowelstep5_catch.wav,1,323,32,4293282,320,131.285
C,9,4163265,vowelstep5.wav,None,1000,32,4295282,1005,133.285
C,9,4163265,silence.wav,None,1000,32,4297283,330,135.285
C,9,4163265,sinestep1.wav,None,1000,32,4299283,329,137.285
C,9,4163265,vowelstep7.wav,None,1000,32,4301283,329,139.285
C,9,4163265,sinestep7.wav,None,1000,32,4303282,319,141.285
C,9,4163265,silence.wav,None,1000,32,4305282,319,143.285
C,9,4163265,silence.wav,None,1000,32,4307282,319,145.285
C,9,4163265,sinestep7.wav,None,1000,32,4309282,318,147.285
C,9,4163265,vowelstep1.wav,None,1000,32,4311282,329,149.285
C,9,4163265,vowelstep5.wav,None,1000,32,4313282,329,151.285
C,9,4163265,vowelstep5.wav,None,1000,32,4315283,338,153.285
C,9,4163265,vowelstep7.wav,None,1000,32,4317283,318,155.285
C,9,4163265,sinestep7.wav,None,1000,32,4319283,318,157.285
C,9,4163265,vowelstep1.wav,None,1000,32,4321283,316,159.285
C,9,4163265,vowelstep3.wav,None,1000,32,4323283,328,161.285
C,9,4163265,sinestep5.wav,None,1000,32,4325283,328,163.285
C,9,4163265,sinestep7.wav,None,1000,32,4327282,327,165.285
C,9,4163265,sinestep1.wav,None,1000,32,4329282,336,167.285
C,9,4163265,sinestep7.wav,None,1000,32,4331283,317,169.285
C,9,4163265,sinestep3.wav,None,1000,32,4333283,317,171.285
C,9,4163265,silence.wav,None,1000,32,4335283,316,173.285
C,9,4163265,vowelstep7.wav,None,1000,32,4337283,316,175.285
C,9,4163265,sinestep7.wav,None,1000,32,4339283,326,177.285
C,9,4163265,sinestep5.wav,None,1000,32,4341283,326,179.285
C,9,4163265,vowelstep7.wav,None,1000,32,4343283,336,181.285
C,9,4163265,vowelstep5.wav,None,1000,32,4345283,336,183.285
C,9,4163265,vowelstep3.wav,None,1000,32,4347283,318,185.285
C,9,4163265,vowelstep7_catch.wav,1,179,32,4349284,317,187.285
C,9,4163265,vowelstep3.wav,None,1000,32,4351283,1144,189.285
C,9,4163265,vowelstep5.wav,None,1000,32,4353283,326,191.285
C,9,4163265,vowelstep7.wav,None,1000,32,4355283,326,193.285
C,9,4163265,vowelstep7_catch.wav,1,110,32,4357283,334,195.285
C,9,4163265,vowelstep5_catch.wav,1,274,32,4359283,1195,197.285
C,9,4163265,sinestep5.wav,None,1000,32,4361283,1041,199.285
C,9,4163265,sinestep3.wav,None,1000,32,4363283,315,201.285
C,9,4163265,vowelstep3_catch.wav,1,327,32,4365283,325,203.285
C,9,4163265,vowelstep1_catch.wav,1,202,32,4367284,995,205.285
C,9,4163265,vowelstep5.wav,None,1000,32,4369284,1122,207.285
C,9,4163265,vowelstep1.wav,None,1000,32,4371284,325,209.285
C,9,4163265,sinestep1_catch.wav,1,233,32,4373283,334,211.285
C,9,4163265,sinestep3_catch.wav,1,313,32,4375283,1080,213.285
C,9,4163265,sinestep1.wav,None,1000,32,4377283,1002,215.285
C,9,4163265,vowelstep3.wav,None,1000,32,4379283,312,217.285
C,9,4163265,sinestep3.wav,None,1000,32,4381283,323,219.285
C,9,4163265,vowelstep5.wav,None,1000,32,4383283,324,221.285
C,9,4163265,sinestep7.wav,None,1000,32,4385284,323,223.285
C,9,4163265,sinestep1.wav,None,1000,32,4387284,303,225.285
C,9,4163265,sinestep5_catch.wav,1,201,32,4389284,313,227.285
C,9,4163265,vowelstep7.wav,None,1000,32,4391284,1111,229.285
C,9,4163265,vowelstep3.wav,None,1000,32,4393284,324,231.285
C,9,4163265,silence.wav,None,1000,32,4395284,322,233.285
C,9,4163265,vowelstep1.wav,None,1000,32,4397283,324,235.285
C,9,4163265,sinestep5.wav,None,1000,32,4399283,323,237.285
C,9,4163265,sinestep1.wav,None,1000,32,4401284,313,239.285
C,9,4163265,vowelstep7.wav,None,1000,32,4403284,312,241.285
C,9,4163265,sinestep3.wav,None,1000,32,4405284,310,243.285
C,9,4163265,sinestep3.wav,None,1000,32,4407284,312,245.285
C,9,4163265,sinestep5.wav,None,1000,32,4409284,322,247.285
C,9,4163265,vowelstep3.wav,None,1000,32,4411284,322,249.285
C,9,4163265,sinestep3.wav,None,1000,32,4413284,323,251.285
C,9,4163265,silence.wav,None,1000,32,4415284,332,253.285
C,9,4163265,sinestep3.wav,None,1000,32,4417284,313,255.285
C,9,4163265,vowelstep1.wav,None,1000,32,4419285,312,257.285
C,9,4163265,silence.wav,None,1000,32,4421284,311,259.285
C,9,4163265,vowelstep1.wav,None,1000,32,4423284,321,261.285
C,9,4163265,silence.wav,None,1000,32,4425284,321,263.285
C,9,4163265,sinestep7.wav,None,1000,32,4427284,321,265.285
C,9,4163265,sinestep3.wav,None,1000,32,4429284,301,267.285
C,9,4163265,vowelstep1.wav,None,1000,32,4431284,311,269.285
C,9,4163265,sinestep7.wav,None,1000,32,4433284,312,271.285
C,9,4163265,sinestep7_catch.wav,1,186,32,4435284,311,273.285
C,9,4163265,vowelstep5.wav,None,1000,32,4437285,1130,275.285
C,9,4163265,silence.wav,None,1000,32,4439285,321,277.285
C,9,4163265,silence.wav,None,1000,32,4441285,320,279.285
C,9,4163265,sinestep3.wav,None,1000,32,4443284,320,281.285
C,9,4163265,vowelstep7.wav,None,1000,32,4445268,330,283.285
C,9,4163265,sinestep5.wav,None,1000,32,4447268,330,285.285
C,9,4163265,sinestep5.wav,None,1000,32,4449284,340,287.285
C,9,4163265,vowelstep3.wav,None,1000,32,4451284,310,289.285
C,9,4163265,sinestep3.wav,None,1000,32,4453284,320,291.285
C,9,4163265,silence.wav,None,1000,32,4455285,319,293.285
C,9,4163265,silence.wav,None,1000,32,4457285,325,295.285
C,9,4163265,vowelstep7.wav,None,1000,32,4459285,330,297.285
C,9,4163265,silence.wav,None,1000,32,4461268,328,299.285
C,9,4163265,vowelstep5.wav,None,1000,32,4463268,329,301.285
C,9,4163265,sinestep5.wav,None,1000,32,4465268,340,303.285
C,9,4163265,silence.wav,None,1000,32,4467284,339,305.285
C,9,4163265,silence.wav,None,1000,32,4469284,319,307.285
C,9,4163265,silence.wav,None,1000,32,4471269,319,309.285
C,9,4163265,sinestep7_catch.wav,1,298,32,4473269,328,311.285
C,9,4163265,sinestep7.wav,None,1000,32,4475285,1030,313.285
C,9,4163265,sinestep5_catch.wav,1,312,32,4477268,339,315.285
C,9,4163265,sinestep5.wav,None,1000,32,4479268,1026,317.285
C,9,4163265,sinestep3_catch.wav,1,203,32,4481268,338,319.285