block,count_main_sequence,first_trial_timestamp,fname,response_catch_response,response_time_catch_response,subject_nr,time_stimulus,time_to_pad,timing
P,NA,291013,vowelstep1_catch.wav,2,230,14,291025,0,
P,NA,291013,sinestep7_catch.wav,2,318,14,293026,1129,
P,NA,291013,vowelstep5_catch.wav,2,339,14,295028,1044,
P,NA,291013,sinestep7.wav,2,381,14,297029,1026,
P,NA,291013,sinestep7.wav,2,543,14,299031,996,
P,NA,291013,sinestep3.wav,2,370,14,301033,834,
P,NA,291013,sinestep1.wav,2,338,14,303017,1008,
P,NA,291013,vowelstep7.wav,2,486,14,305019,1051,
P,NA,291013,vowelstep3.wav,2,432,14,307022,900,
P,NA,291013,silence.wav,None,1000,14,309023,954,
P,NA,291013,sinestep1.wav,2,327,14,311025,396,
P,NA,291013,vowelstep1.wav,2,551,14,313026,1049,
P,NA,291013,sinestep5.wav,2,364,14,315028,825,
P,NA,291013,sinestep1.wav,2,373,14,317029,1011,
P,NA,291013,sinestep1.wav,2,315,14,319031,991,
P,NA,291013,vowelstep1.wav,2,303,14,321032,1051,
P,NA,291013,silence.wav,None,1000,14,323018,1063,
P,NA,291013,silence.wav,None,1000,14,325020,395,
P,NA,291013,silence.wav,None,1000,14,327021,365,
P,NA,291013,sinestep3_catch.wav,2,85,14,329023,375,
P,NA,291013,vowelstep7.wav,2,339,14,331025,1299,
P,NA,291013,silence.wav,None,1000,14,333026,1046,
P,NA,291013,vowelstep7.wav,2,291,14,335028,365,
P,NA,291013,vowelstep3.wav,2,398,14,337029,1074,
P,NA,291013,silence.wav,None,1000,14,339031,966,
P,NA,291013,vowelstep1.wav,2,275,14,341033,375,
P,NA,291013,sinestep3.wav,2,365,14,343018,1098,
P,NA,291013,vowelstep1.wav,2,556,14,345020,1008,
P,NA,291013,silence.wav,None,1000,14,347021,826,
P,NA,291013,sinestep7.wav,2,183,14,349023,383,
P,NA,291013,sinestep5_catch.wav,2,204,14,351025,1199,
P,NA,291013,silence.wav,None,1000,14,353026,1188,
P,NA,291013,sinestep7.wav,2,219,14,355028,374,
P,NA,291013,sinestep5.wav,2,324,14,357029,1154,
P,NA,291013,sinestep3.wav,2,354,14,359032,1049,
P,NA,291013,sinestep1_catch.wav,2,328,14,361033,1028,
P,NA,291013,vowelstep3_catch.wav,2,293,14,363018,1051,
P,NA,291013,vowelstep5_catch.wav,2,348,14,365020,1089,
P,NA,291013,vowelstep7.wav,2,330,14,367021,1034,
P,NA,291013,silence.wav,None,1000,14,369023,1032,
P,NA,291013,vowelstep7_catch.wav,2,239,14,371025,373,
P,NA,291013,vowelstep3.wav,2,271,14,373026,1132,
P,NA,291013,silence.wav,None,1000,14,375028,1111,
P,NA,291013,sinestep7_catch.wav,2,277,14,377030,381,
P,NA,291013,sinestep7.wav,2,349,14,379032,1084,
P,NA,291013,vowelstep5.wav,2,651,14,381033,1012,
P,NA,291013,vowelstep3.wav,2,611,14,383018,719,
P,NA,291013,sinestep5.wav,2,256,14,385020,779,
P,NA,291013,sinestep5_catch.wav,2,473,14,387021,1115,
P,NA,291013,sinestep3.wav,2,219,14,389023,897,
P,NA,291013,silence.wav,None,1000,14,391024,1161,
P,NA,291013,vowelstep7.wav,2,282,14,393027,380,
P,NA,291013,sinestep3_catch.wav,2,284,14,395029,1107,
P,NA,291013,vowelstep5.wav,2,335,14,397030,1075,
P,NA,291013,silence.wav,None,1000,14,399032,1035,
P,NA,291013,sinestep1.wav,2,229,14,401033,372,
P,NA,291013,vowelstep1.wav,2,507,14,403018,1152,
P,NA,291013,silence.wav,None,1000,14,405020,874,
P,NA,291013,silence.wav,None,1000,14,407021,379,
P,NA,291013,silence.wav,None,1000,14,409023,380,
P,NA,291013,sinestep1_catch.wav,2,64,14,411025,370,
P,NA,291013,sinestep1.wav,2,306,14,413027,1305,
P,NA,291013,silence.wav,None,1000,14,415029,1064,
P,NA,291013,vowelstep1_catch.wav,2,347,14,417030,370,
P,NA,291013,vowelstep5.wav,2,429,14,419032,1031,
P,NA,291013,sinestep5.wav,2,538,14,421033,930,
P,NA,291013,vowelstep3.wav,2,217,14,423018,820,
P,NA,291013,silence.wav,None,1000,14,425020,1171,
P,NA,291013,silence.wav,None,1000,14,427021,388,
P,NA,291013,sinestep7.wav,2,288,14,429024,369,
P,NA,291013,vowelstep5.wav,2,274,14,431025,1079,
P,NA,291013,silence.wav,None,1000,14,433027,1103,
P,NA,291013,vowelstep3_catch.wav,2,201,14,435029,377,
P,NA,291013,silence.wav,None,1000,14,437030,1176,
P,NA,291013,vowelstep5.wav,2,307,14,439032,387,
P,NA,291013,vowelstep5_catch.wav,2,302,14,441033,1057,
P,NA,291013,vowelstep7_catch.wav,2,413,14,443018,1065,
P,NA,291013,sinestep3.wav,2,441,14,445021,984,
P,NA,291013,vowelstep5.wav,2,254,14,447022,935,
P,NA,291013,vowelstep3.wav,2,237,14,449024,1124,
P,NA,291013,silence.wav,None,1000,14,451025,1141,
P,NA,291013,sinestep3.wav,2,276,14,453027,378,
P,NA,291013,silence.wav,None,1000,14,455028,1089,
P,NA,291013,sinestep7_catch.wav,2,184,14,457030,366,
P,NA,291013,sinestep5_catch.wav,2,130,14,459032,1182,
P,NA,291013,sinestep5.wav,2,272,14,461033,1246,
P,NA,291013,sinestep5.wav,2,200,14,463019,1082,
P,NA,291013,vowelstep7.wav,2,178,14,465021,1174,
P,NA,291013,sinestep3_catch.wav,2,278,14,467022,1206,
P,NA,291013,vowelstep1.wav,2,333,14,469024,1106,
D,0,63331,sinestep5.wav,None,1000,14,63336,0,1.285
D,0,63331,vowelstep1_catch.wav,2,169,14,65342,218,3.285
D,0,63331,sinestep7.wav,None,1000,14,67339,1035,5.285
D,0,63331,vowelstep3.wav,None,1000,14,69340,220,7.285
D,0,63331,vowelstep3_catch.wav,2,147,14,71342,108,9.285
D,0,63331,vowelstep5_catch.wav,2,182,14,73344,1061,11.285
D,0,63331,sinestep7.wav,None,1000,14,75346,1032,13.285
D,0,63331,silence.wav,None,1000,14,77348,211,15.285
D,0,63331,vowelstep7_catch.wav,2,89,14,79349,216,17.285
D,0,63331,vowelstep7.wav,None,1000,14,81351,1105,19.285
D,0,63331,vowelstep3.wav,None,1000,14,83353,205,21.285
D,0,63331,vowelstep7_catch.wav,2,109,14,85337,199,23.285
D,0,63331,vowelstep5.wav,None,1000,14,87339,1099,25.285
D,0,63331,sinestep7.wav,None,1000,14,89340,214,27.285
D,0,63331,silence.wav,None,1000,14,91343,212,29.285
D,0,63331,vowelstep1.wav,None,1000,14,93344,224,31.285
D,0,63331,vowelstep1.wav,None,1000,14,95346,222,33.285
D,0,63331,vowelstep7.wav,None,1000,14,97348,200,35.285
D,0,63331,vowelstep3.wav,None,1000,14,99349,200,37.285
D,0,63331,sinestep3.wav,None,1000,14,101351,201,39.285
D,0,63331,sinestep1.wav,None,1000,14,103353,212,41.285
D,0,63331,vowelstep1.wav,None,1000,14,105337,190,43.285
D,0,63331,vowelstep1.wav,None,1000,14,107339,209,45.285
D,0,63331,sinestep7.wav,None,1000,14,109341,217,47.285
D,0,63331,sinestep3.wav,None,1000,14,111343,222,49.285
D,0,63331,vowelstep5_catch.wav,2,189,14,113344,222,51.285
D,0,63331,sinestep7.wav,None,1000,14,115346,1001,53.285
D,0,63331,vowelstep5.wav,None,1000,14,117348,205,55.285
D,0,63331,sinestep3.wav,None,1000,14,119349,203,57.285
D,0,63331,sinestep7.wav,None,1000,14,121351,203,59.285
D,0,63331,vowelstep3.wav,None,1000,14,123352,222,61.285
D,0,63331,vowelstep3.wav,None,1000,14,125337,199,63.285
D,0,63331,vowelstep3_catch.wav,2,110,14,127340,213,65.285
D,0,63331,silence.wav,None,1000,14,129341,1114,67.285
D,0,63331,vowelstep7.wav,None,1000,14,131343,208,69.285
D,0,63331,silence.wav,None,1000,14,133344,210,71.285
D,0,63331,sinestep1.wav,None,1000,14,135346,209,73.285
D,0,63331,vowelstep5.wav,None,1000,14,137348,191,75.285
D,0,63331,vowelstep1.wav,None,1000,14,139349,202,77.285
D,0,63331,sinestep7.wav,None,1000,14,141351,197,79.285
D,0,63331,vowelstep1.wav,None,1000,14,143352,202,81.285
D,0,63331,sinestep7.wav,None,1000,14,145338,205,83.285
D,0,63331,vowelstep7.wav,None,1000,14,147340,210,85.285
D,0,63331,vowelstep5.wav,None,1000,14,149341,205,87.285
D,0,63331,vowelstep1.wav,None,1000,14,151343,220,89.285
D,0,63331,sinestep5.wav,None,1000,14,153344,208,91.285
D,0,63331,sinestep5.wav,None,1000,14,155346,222,93.285
D,0,63331,vowelstep3.wav,None,1000,14,157348,191,95.285
D,0,63331,silence.wav,None,1000,14,159349,205,97.285
D,0,63331,sinestep1.wav,None,1000,14,161352,205,99.285
D,0,63331,sinestep1.wav,None,1000,14,163337,206,101.285
D,0,63331,sinestep3.wav,None,1000,14,165338,217,103.285
D,0,63331,vowelstep1.wav,None,1000,14,167340,212,105.285
D,0,63331,sinestep7.wav,None,1000,14,169341,215,107.285
D,0,63331,vowelstep3.wav,None,1000,14,171343,227,109.285
D,0,63331,silence.wav,None,1000,14,173344,209,111.285
D,0,63331,vowelstep5.wav,None,1000,14,175346,199,113.285
D,0,63331,vowelstep1.wav,None,1000,14,177347,206,115.285
D,0,63331,vowelstep1_catch.wav,2,202,14,179350,210,117.285
D,0,63331,vowelstep7.wav,None,1000,14,181352,988,119.285
D,0,63331,sinestep5.wav,None,1000,14,183336,196,121.285
D,0,63331,vowelstep7.wav,None,1000,14,185338,227,123.285
D,0,63331,sinestep1.wav,None,1000,14,187340,223,125.285
D,0,63331,sinestep1.wav,None,1000,14,189341,206,127.285
D,0,63331,vowelstep3.wav,None,1000,14,191343,206,129.285
D,0,63331,sinestep1.wav,None,1000,14,193344,206,131.285
D,0,63331,silence.wav,None,1000,14,195346,212,133.285
D,0,63331,sinestep3.wav,None,1000,14,197348,212,135.285
D,0,63331,silence.wav,None,1000,14,199350,216,137.285
D,0,63331,vowelstep3.wav,None,1000,14,201352,192,139.285
D,0,63331,vowelstep5.wav,None,1000,14,203336,199,141.285
D,0,63331,silence.wav,None,1000,14,205338,218,143.285
D,0,63331,sinestep5.wav,None,1000,14,207340,215,145.285
D,0,63331,sinestep5.wav,None,1000,14,209341,211,147.285
D,0,63331,sinestep1.wav,None,1000,14,211343,214,149.285
D,0,63331,vowelstep5.wav,None,1000,14,213344,213,151.285
D,0,63331,vowelstep5.wav,None,1000,14,215347,202,153.285
D,0,63331,sinestep1_catch.wav,2,226,14,217348,205,155.285
D,0,63331,sinestep5.wav,None,1000,14,219350,973,157.285
D,0,63331,vowelstep3.wav,None,1000,14,221352,213,159.285
D,0,63331,vowelstep7.wav,None,1000,14,223336,208,161.285
D,0,63331,vowelstep3.wav,None,1000,14,225338,215,163.285
D,0,63331,sinestep3.wav,None,1000,14,227339,214,165.285
D,0,63331,sinestep1.wav,None,1000,14,229341,191,167.285
D,0,63331,silence.wav,None,1000,14,231344,206,169.285
D,0,63331,sinestep1.wav,None,1000,14,233345,199,171.285
D,0,63331,vowelstep1.wav,None,1000,14,235347,213,173.285
D,0,63331,vowelstep3.wav,None,1000,14,237348,211,175.285
D,0,63331,silence.wav,None,1000,14,239350,214,177.285
D,0,63331,sinestep7.wav,None,1000,14,241351,212,179.285
D,0,63331,silence.wav,None,1000,14,243336,205,181.285
D,0,63331,vowelstep7.wav,None,1000,14,245338,218,183.285
D,0,63331,sinestep3.wav,None,1000,14,247339,231,185.285
D,0,63331,vowelstep1.wav,None,1000,14,249342,229,187.285
D,0,63331,sinestep7.wav,None,1000,14,251344,212,189.285
D,0,63331,silence.wav,None,1000,14,253345,209,191.285
D,0,63331,sinestep1.wav,None,1000,14,255347,211,193.285
D,0,63331,sinestep3.wav,None,1000,14,257348,221,195.285
D,0,63331,sinestep5.wav,None,1000,14,259350,203,197.285
D,0,63331,vowelstep3.wav,None,1000,14,261352,199,199.285
D,0,63331,sinestep5.wav,None,1000,14,263336,202,201.285
D,0,63331,sinestep5.wav,None,1000,14,265338,214,203.285
D,0,63331,sinestep3.wav,None,1000,14,267340,212,205.285
D,0,63331,sinestep3.wav,None,1000,14,269342,208,207.285
D,0,63331,sinestep5.wav,None,1000,14,271344,219,209.285
D,0,63331,sinestep3_catch.wav,2,350,14,273345,198,211.285
D,0,63331,vowelstep7.wav,None,1000,14,275347,845,213.285
D,0,63331,sinestep1.wav,None,1000,14,277348,198,215.285
D,0,63331,sinestep7.wav,None,1000,14,279350,208,217.285
D,0,63331,vowelstep1.wav,None,1000,14,281352,199,219.285
D,0,63331,sinestep5.wav,None,1000,14,283336,213,221.285
D,0,63331,silence.wav,None,1000,14,285339,221,223.285
D,0,63331,sinestep5_catch.wav,2,88,14,287340,223,225.285
D,0,63331,sinestep5.wav,None,1000,14,289342,1128,227.285
D,0,63331,silence.wav,None,1000,14,291344,227,229.285
D,0,63331,vowelstep7.wav,None,1000,14,293345,209,231.285
D,0,63331,sinestep3.wav,None,1000,14,295347,208,233.285
D,0,63331,vowelstep5.wav,None,1000,14,297348,204,235.285
D,0,63331,vowelstep7.wav,None,1000,14,299350,213,237.285
D,0,63331,vowelstep5.wav,None,1000,14,301336,198,239.285
D,0,63331,silence.wav,None,1000,14,303337,217,241.285
D,0,63331,silence.wav,None,1000,14,305339,216,243.285
D,0,63331,silence.wav,None,1000,14,307340,209,245.285
D,0,63331,sinestep7.wav,None,1000,14,309342,205,247.285
D,0,63331,sinestep5.wav,None,1000,14,311343,210,249.285
D,0,63331,sinestep7_catch.wav,2,83,14,313345,209,251.285
D,0,63331,vowelstep1.wav,None,1000,14,315347,1113,253.285
D,0,63331,vowelstep1.wav,None,1000,14,317348,195,255.285
D,0,63331,vowelstep3.wav,None,1000,14,319351,200,257.285
D,0,63331,silence.wav,None,1000,14,321336,194,259.285
D,0,63331,sinestep5.wav,None,1000,14,323337,209,261.285
D,0,63331,vowelstep7.wav,None,1000,14,325339,199,263.285
D,0,63331,vowelstep3.wav,None,1000,14,327340,214,265.285
D,0,63331,vowelstep7.wav,None,1000,14,329342,214,267.285
D,0,63331,vowelstep5.wav,None,1000,14,331343,219,269.285
D,0,63331,sinestep1.wav,None,1000,14,333345,211,271.285
D,0,63331,sinestep7.wav,None,1000,14,335347,200,273.285
D,0,63331,sinestep3.wav,None,1000,14,337349,202,275.285
D,0,63331,silence.wav,None,1000,14,339351,207,277.285
D,0,63331,sinestep7.wav,None,1000,14,341336,202,279.285
D,0,63331,vowelstep5.wav,None,1000,14,343337,218,281.285
D,0,63331,sinestep1.wav,None,1000,14,345339,214,283.285
D,0,63331,vowelstep1.wav,None,1000,14,347340,214,285.285
D,0,63331,sinestep1.wav,None,1000,14,349342,225,287.285
D,0,63331,vowelstep5.wav,None,1000,14,351343,204,289.285
D,0,63331,silence.wav,None,1000,14,353345,205,291.285
D,0,63331,sinestep3.wav,None,1000,14,355348,203,293.285
D,0,63331,vowelstep5.wav,None,1000,14,357349,216,295.285
D,0,63331,silence.wav,None,1000,14,359351,197,297.285
D,0,63331,sinestep3.wav,None,1000,14,361352,194,299.285
D,0,63331,vowelstep7.wav,None,1000,14,363337,195,301.285
D,0,63331,sinestep7_catch.wav,2,121,14,365339,226,303.285
D,0,63331,sinestep5_catch.wav,2,66,14,367340,1084,305.285
D,0,63331,sinestep3.wav,None,1000,14,369342,1148,307.285
D,0,63331,vowelstep5.wav,None,1000,14,371344,208,309.285
D,0,63331,silence.wav,None,1000,14,373346,209,311.285
D,0,63331,sinestep3_catch.wav,2,168,14,375347,212,313.285
D,0,63331,silence.wav,None,1000,14,377349,1053,315.285
D,0,63331,vowelstep7.wav,None,1000,14,379351,204,317.285
D,0,63331,silence.wav,None,1000,14,381336,199,319.285
A,1,442159,sinestep5_catch.wav,2,216,14,442170,0,1.285
A,1,442159,vowelstep1.wav,None,1000,14,444172,995,3.285
A,1,442159,vowelstep3.wav,None,1000,14,446173,210,5.285
A,1,442159,sinestep1.wav,None,1000,14,448175,207,7.285
A,1,442159,sinestep5_catch.wav,2,98,14,450177,204,9.285
A,1,442159,sinestep7.wav,None,1000,14,452178,1120,11.285
A,1,442159,sinestep3.wav,None,1000,14,454180,192,13.285
A,1,442159,silence.wav,None,1000,14,456165,195,15.285
A,1,442159,vowelstep7.wav,None,1000,14,458166,227,17.285
A,1,442159,sinestep7.wav,None,1000,14,460169,203,19.285
A,1,442159,vowelstep5_catch.wav,2,165,14,462170,204,21.285
A,1,442159,sinestep7.wav,None,1000,14,464172,1037,23.285
A,1,442159,sinestep3.wav,None,1000,14,466173,219,25.285
A,1,442159,silence.wav,None,1000,14,468175,214,27.285
A,1,442159,sinestep3.wav,None,1000,14,470177,201,29.285
A,1,442159,sinestep5_catch.wav,2,212,14,472178,196,31.285
A,1,442159,sinestep1.wav,None,1000,14,474180,979,33.285
A,1,442159,sinestep1.wav,None,1000,14,476166,207,35.285
A,1,442159,sinestep5.wav,None,1000,14,478167,208,37.285
A,1,442159,vowelstep3.wav,None,1000,14,480169,210,39.285
A,1,442159,vowelstep5.wav,None,1000,14,482170,214,41.285
A,1,442159,vowelstep3.wav,None,1000,14,484172,210,43.285
A,1,442159,vowelstep1.wav,None,1000,14,486173,213,45.285
A,1,442159,vowelstep3.wav,None,1000,14,488175,205,47.285
A,1,442159,sinestep3.wav,None,1000,14,490177,206,49.285
A,1,442159,sinestep7.wav,None,1000,14,492178,204,51.285
A,1,442159,sinestep5.wav,None,1000,14,494181,198,53.285
A,1,442159,vowelstep7_catch.wav,None,1000,14,496182,194,55.285
A,1,442159,silence.wav,None,1000,14,498167,191,57.285
A,1,442159,vowelstep3.wav,None,1000,14,500169,213,59.285
A,1,442159,vowelstep1.wav,None,1000,14,502170,195,61.285
A,1,442159,silence.wav,None,1000,14,504172,201,63.285
A,1,442159,sinestep3.wav,None,1000,14,506173,200,65.285
A,1,442159,sinestep7.wav,None,1000,14,508175,203,67.285
A,1,442159,sinestep5.wav,None,1000,14,510177,183,69.285
A,1,442159,sinestep5.wav,None,1000,14,512179,192,71.285
A,1,442159,sinestep7.wav,None,1000,14,514181,194,73.285
A,1,442159,sinestep1.wav,None,1000,14,516182,195,75.285
A,1,442159,sinestep5.wav,None,1000,14,518167,199,77.285
A,1,442159,vowelstep1.wav,None,1000,14,520169,193,79.285
A,1,442159,sinestep1.wav,None,1000,14,522170,206,81.285
A,1,442159,vowelstep5.wav,None,1000,14,524172,207,83.285
A,1,442159,sinestep1.wav,None,1000,14,526173,213,85.285
A,1,442159,silence.wav,None,1000,14,528175,208,87.285
A,1,442159,vowelstep1.wav,None,1000,14,530177,221,89.285
A,1,442159,sinestep3.wav,None,1000,14,532179,197,91.285
A,1,442159,vowelstep5.wav,None,1000,14,534181,204,93.285
A,1,442159,vowelstep5.wav,None,1000,14,536165,201,95.285
A,1,442159,vowelstep5.wav,None,1000,14,538167,206,97.285
A,1,442159,vowelstep7.wav,None,1000,14,540169,213,99.285
A,1,442159,vowelstep3.wav,None,1000,14,542170,210,101.285
A,1,442159,sinestep1.wav,None,1000,14,544172,220,103.285
A,1,442159,sinestep1.wav,None,1000,14,546174,201,105.285
A,1,442159,vowelstep7.wav,None,1000,14,548176,202,107.285
A,1,442159,vowelstep1.wav,None,1000,14,550177,201,109.285
A,1,442159,vowelstep7.wav,None,1000,14,552179,215,111.285
A,1,442159,silence.wav,None,1000,14,554181,181,113.285
A,1,442159,sinestep1.wav,None,1000,14,556165,193,115.285
A,1,442159,vowelstep1.wav,None,1000,14,558167,211,117.285
A,1,442159,silence.wav,None,1000,14,560169,218,119.285
A,1,442159,vowelstep1.wav,None,1000,14,562170,204,121.285
A,1,442159,vowelstep3.wav,None,1000,14,564173,202,123.285
A,1,442159,vowelstep1.wav,None,1000,14,566174,202,125.285
A,1,442159,sinestep7.wav,None,1000,14,568176,209,127.285
A,1,442159,silence.wav,None,1000,14,570177,210,129.285
A,1,442159,vowelstep1.wav,None,1000,14,572179,204,131.285
A,1,442159,silence.wav,None,1000,14,574181,203,133.285
A,1,442159,sinestep7.wav,None,1000,14,576165,197,135.285
A,1,442159,vowelstep5.wav,None,1000,14,578167,232,137.285
A,1,442159,sinestep7.wav,None,1000,14,580168,231,139.285
A,1,442159,sinestep3.wav,None,1000,14,582171,210,141.285
A,1,442159,vowelstep5.wav,None,1000,14,584173,211,143.285
A,1,442159,silence.wav,None,1000,14,586174,206,145.285
A,1,442159,sinestep3.wav,None,1000,14,588176,201,147.285
A,1,442159,sinestep5.wav,None,1000,14,590177,201,149.285
A,1,442159,sinestep3.wav,None,1000,14,592179,200,151.285
A,1,442159,vowelstep3.wav,None,1000,14,594181,202,153.285
A,1,442159,sinestep3.wav,None,1000,14,596165,185,155.285
A,1,442159,vowelstep7_catch.wav,2,241,14,598167,210,157.285
A,1,442159,vowelstep7.wav,None,1000,14,600170,967,159.285
A,1,442159,vowelstep5.wav,None,1000,14,602171,220,161.285
A,1,442159,sinestep5.wav,None,1000,14,604173,220,163.285
A,1,442159,silence.wav,None,1000,14,606174,200,165.285
A,1,442159,sinestep5.wav,None,1000,14,608176,196,167.285
A,1,442159,vowelstep5_catch.wav,None,1000,14,610177,203,169.285
A,1,442159,silence.wav,None,1000,14,612179,206,171.285
A,1,442159,sinestep7.wav,None,1000,14,614181,220,173.285
A,1,442159,sinestep5.wav,None,1000,14,616166,184,175.285
A,1,442159,sinestep7.wav,None,1000,14,618168,213,177.285
A,1,442159,vowelstep3.wav,None,1000,14,620169,213,179.285
A,1,442159,sinestep5.wav,None,1000,14,622171,228,181.285
A,1,442159,vowelstep1.wav,None,1000,14,624173,207,183.285
A,1,442159,vowelstep5.wav,None,1000,14,626174,208,185.285
A,1,442159,sinestep5.wav,None,1000,14,628176,203,187.285
A,1,442159,vowelstep1.wav,None,1000,14,630177,212,189.285
A,1,442159,silence.wav,None,1000,14,632179,196,191.285
A,1,442159,sinestep1.wav,None,1000,14,634165,193,193.285
A,1,442159,vowelstep5.wav,None,1000,14,636166,195,195.285
A,1,442159,sinestep3.wav,None,1000,14,638168,195,197.285
A,1,442159,silence.wav,None,1000,14,640169,202,199.285
A,1,442159,vowelstep3.wav,None,1000,14,642171,209,201.285
A,1,442159,vowelstep3_catch.wav,2,233,14,644173,209,203.285
A,1,442159,vowelstep5.wav,None,1000,14,646174,954,205.285
A,1,442159,vowelstep1_catch.wav,None,1000,14,648176,190,207.285
A,1,442159,silence.wav,None,1000,14,650177,197,209.285
A,1,442159,sinestep3.wav,None,1000,14,652180,199,211.285
A,1,442159,vowelstep5.wav,None,1000,14,654165,203,213.285
A,1,442159,silence.wav,None,1000,14,656166,199,215.285
A,1,442159,sinestep5.wav,None,1000,14,658168,215,217.285
A,1,442159,vowelstep7.wav,None,1000,14,660169,210,219.285
A,1,442159,silence.wav,None,1000,14,662171,209,221.285
A,1,442159,vowelstep3.wav,None,1000,14,664173,192,223.285
A,1,442159,sinestep7.wav,None,1000,14,666174,198,225.285
A,1,442159,silence.wav,None,1000,14,668176,203,227.285
A,1,442159,vowelstep3.wav,None,1000,14,670178,201,229.285
A,1,442159,vowelstep5.wav,None,1000,14,672180,216,231.285
A,1,442159,vowelstep7.wav,None,1000,14,674165,197,233.285
A,1,442159,vowelstep3.wav,None,1000,14,676166,218,235.285
A,1,442159,vowelstep5.wav,None,1000,14,678168,215,237.285
A,1,442159,sinestep1_catch.wav,2,55,14,680169,204,239.285
A,1,442159,sinestep3.wav,None,1000,14,682171,1145,241.285
A,1,442159,sinestep1.wav,None,1000,14,684172,204,243.285
A,1,442159,sinestep3_catch.wav,2,55,14,686175,202,245.285
A,1,442159,sinestep7.wav,None,1000,14,688177,1156,247.285
A,1,442159,vowelstep1.wav,None,1000,14,690178,192,249.285
A,1,442159,sinestep3.wav,None,1000,14,692180,187,251.285
A,1,442159,vowelstep7.wav,None,1000,14,694165,199,253.285
A,1,442159,silence.wav,None,1000,14,696166,217,255.285
A,1,442159,sinestep1.wav,None,1000,14,698168,230,257.285
A,1,442159,silence.wav,None,1000,14,700169,211,259.285
A,1,442159,vowelstep5.wav,None,1000,14,702171,211,261.285
A,1,442159,sinestep5_catch.wav,2,250,14,704173,210,263.285
A,1,442159,vowelstep7.wav,None,1000,14,706175,962,265.285
A,1,442159,sinestep3.wav,None,1000,14,708177,187,267.285
A,1,442159,vowelstep1.wav,None,1000,14,710178,199,269.285
A,1,442159,vowelstep3.wav,None,1000,14,712180,201,271.285
A,1,442159,sinestep7_catch.wav,2,337,14,714165,203,273.285
A,1,442159,silence.wav,None,1000,14,716166,864,275.285
A,1,442159,vowelstep7.wav,None,1000,14,718168,211,277.285
A,1,442159,sinestep7.wav,None,1000,14,720169,211,279.285
A,1,442159,sinestep1.wav,None,1000,14,722172,222,281.285
A,1,442159,vowelstep7.wav,None,1000,14,724173,203,283.285
A,1,442159,sinestep5.wav,None,1000,14,726175,203,285.285
A,1,442159,sinestep5.wav,None,1000,14,728176,202,287.285
A,1,442159,sinestep7_catch.wav,2,93,14,730178,211,289.285
A,1,442159,sinestep5.wav,None,1000,14,732180,1119,291.285
A,1,442159,silence.wav,None,1000,14,734165,189,293.285
A,1,442159,vowelstep3.wav,None,1000,14,736166,216,295.285
A,1,442159,silence.wav,None,1000,14,738168,223,297.285
A,1,442159,vowelstep1.wav,None,1000,14,740170,213,299.285
A,1,442159,sinestep1.wav,None,1000,14,742172,202,301.285
A,1,442159,sinestep7.wav,None,1000,14,744173,208,303.285
A,1,442159,vowelstep7.wav,None,1000,14,746175,209,305.285
A,1,442159,sinestep1_catch.wav,None,1000,14,748176,209,307.285
A,1,442159,silence.wav,None,1000,14,750178,222,309.285
A,1,442159,silence.wav,None,1000,14,752180,201,311.285
A,1,442159,vowelstep7.wav,None,1000,14,754164,201,313.285
A,1,442159,sinestep1.wav,None,1000,14,756167,227,315.285
A,1,442159,vowelstep7.wav,None,1000,14,758169,209,317.285
A,1,442159,vowelstep7.wav,None,1000,14,760170,210,319.285
G,2,817256,vowelstep3.wav,None,1000,14,817268,0,1.285
G,2,817256,vowelstep3.wav,None,1000,14,819269,207,3.285
G,2,817256,vowelstep7.wav,None,1000,14,821271,206,5.285
G,2,817256,vowelstep3.wav,None,1000,14,823272,189,7.285
G,2,817256,sinestep5.wav,None,1000,14,825274,194,9.285
G,2,817256,sinestep1_catch.wav,2,217,14,827277,198,11.285
G,2,817256,silence.wav,None,1000,14,829261,979,13.285
G,2,817256,silence.wav,None,1000,14,831263,213,15.285
G,2,817256,vowelstep7.wav,None,1000,14,833265,208,17.285
G,2,817256,vowelstep1.wav,None,1000,14,835266,213,19.285
G,2,817256,silence.wav,None,1000,14,837268,221,21.285
G,2,817256,sinestep1.wav,None,1000,14,839269,194,23.285
G,2,817256,vowelstep7.wav,None,1000,14,841271,202,25.285
G,2,817256,sinestep5.wav,None,1000,14,843273,193,27.285
G,2,817256,sinestep5.wav,None,1000,14,845275,212,29.285
G,2,817256,sinestep3.wav,None,1000,14,847277,208,31.285
G,2,817256,vowelstep3.wav,None,1000,14,849261,190,33.285
G,2,817256,silence.wav,None,1000,14,851263,218,35.285
G,2,817256,vowelstep1.wav,None,1000,14,853265,224,37.285
G,2,817256,sinestep7.wav,None,1000,14,855266,218,39.285
G,2,817256,vowelstep5.wav,None,1000,14,857268,199,41.285
G,2,817256,vowelstep3.wav,None,1000,14,859269,210,43.285
G,2,817256,sinestep1.wav,None,1000,14,861272,206,45.285
G,2,817256,sinestep7.wav,None,1000,14,863273,204,47.285
G,2,817256,sinestep1.wav,None,1000,14,865275,217,49.285
G,2,817256,sinestep5.wav,None,1000,14,867277,199,51.285
G,2,817256,vowelstep1.wav,None,1000,14,869261,197,53.285
G,2,817256,silence.wav,None,1000,14,871263,202,55.285
G,2,817256,sinestep5.wav,None,1000,14,873265,207,57.285
G,2,817256,vowelstep1.wav,None,1000,14,875266,207,59.285
G,2,817256,vowelstep3.wav,None,1000,14,877268,211,61.285
G,2,817256,sinestep3.wav,None,1000,14,879270,220,63.285
G,2,817256,sinestep1.wav,None,1000,14,881272,196,65.285
G,2,817256,vowelstep5.wav,None,1000,14,883273,202,67.285
G,2,817256,vowelstep3.wav,None,1000,14,885275,192,69.285
G,2,817256,vowelstep5.wav,None,1000,14,887277,203,71.285
G,2,817256,vowelstep7.wav,None,1000,14,889261,210,73.285
G,2,817256,vowelstep5.wav,None,1000,14,891263,209,75.285
G,2,817256,vowelstep5.wav,None,1000,14,893264,209,77.285
G,2,817256,sinestep3.wav,None,1000,14,895266,213,79.285
G,2,817256,sinestep3_catch.wav,2,341,14,897269,219,81.285
G,2,817256,sinestep5_catch.wav,2,155,14,899270,847,83.285
G,2,817256,sinestep7.wav,None,1000,14,901272,1050,85.285
G,2,817256,sinestep7_catch.wav,2,43,14,903273,207,87.285
G,2,817256,sinestep7.wav,None,1000,14,905275,1164,89.285
G,2,817256,vowelstep1.wav,None,1000,14,907277,201,91.285
G,2,817256,vowelstep7.wav,None,1000,14,909261,199,93.285
G,2,817256,vowelstep3.wav,None,1000,14,911263,209,95.285
G,2,817256,sinestep3.wav,None,1000,14,913265,213,97.285
G,2,817256,sinestep1.wav,None,1000,14,915267,197,99.285
G,2,817256,sinestep1.wav,None,1000,14,917269,201,101.285
G,2,817256,sinestep5.wav,None,1000,14,919270,203,103.285
G,2,817256,vowelstep7.wav,None,1000,14,921272,206,105.285
G,2,817256,silence.wav,None,1000,14,923273,186,107.285
G,2,817256,sinestep3.wav,None,1000,14,925275,194,109.285
G,2,817256,vowelstep1.wav,None,1000,14,927276,195,111.285
G,2,817256,sinestep3.wav,None,1000,14,929261,196,113.285
G,2,817256,sinestep3.wav,None,1000,14,931264,205,115.285
G,2,817256,sinestep7.wav,None,1000,14,933265,207,117.285
G,2,817256,silence.wav,None,1000,14,935267,207,119.285
G,2,817256,vowelstep5.wav,None,1000,14,937269,216,121.285
G,2,817256,sinestep1_catch.wav,2,272,14,939270,209,123.285
G,2,817256,silence.wav,None,1000,14,941272,941,125.285
G,2,817256,sinestep5.wav,None,1000,14,943273,191,127.285
G,2,817256,sinestep7.wav,None,1000,14,945275,205,129.285
G,2,817256,sinestep3.wav,None,1000,14,947277,202,131.285
G,2,817256,sinestep3.wav,None,1000,14,949262,198,133.285
G,2,817256,vowelstep5.wav,None,1000,14,951264,215,135.285
G,2,817256,sinestep3.wav,None,1000,14,953265,212,137.285
G,2,817256,sinestep3_catch.wav,2,205,14,955267,212,139.285
G,2,817256,vowelstep1.wav,None,1000,14,957268,1019,141.285
G,2,817256,vowelstep1.wav,None,1000,14,959270,201,143.285
G,2,817256,sinestep5.wav,None,1000,14,961272,207,145.285
G,2,817256,silence.wav,None,1000,14,963273,206,147.285
G,2,817256,sinestep3.wav,None,1000,14,965275,207,149.285
G,2,817256,silence.wav,None,1000,14,967277,195,151.285
G,2,817256,vowelstep3.wav,None,1000,14,969262,195,153.285
G,2,817256,sinestep5.wav,None,1000,14,971264,224,155.285
G,2,817256,vowelstep7.wav,None,1000,14,973265,202,157.285
G,2,817256,silence.wav,None,1000,14,975267,197,159.285
G,2,817256,sinestep5_catch.wav,2,374,14,977268,205,161.285
G,2,817256,vowelstep5.wav,None,1000,14,979270,831,163.285
G,2,817256,silence.wav,None,1000,14,981272,205,165.285
G,2,817256,vowelstep7.wav,None,1000,14,983274,203,167.285
G,2,817256,vowelstep1.wav,None,1000,14,985276,186,169.285
G,2,817256,vowelstep1.wav,None,1000,14,987261,185,171.285
G,2,817256,vowelstep1.wav,None,1000,14,989262,215,173.285
G,2,817256,sinestep5.wav,None,1000,14,991264,218,175.285
G,2,817256,vowelstep3.wav,None,1000,14,993265,210,177.285
G,2,817256,sinestep1.wav,None,1000,14,995267,212,179.285
G,2,817256,vowelstep1.wav,None,1000,14,997268,212,181.285
G,2,817256,sinestep1.wav,None,1000,14,999270,216,183.285
G,2,817256,sinestep7.wav,None,1000,14,1001273,223,185.285
G,2,817256,sinestep7.wav,None,1000,14,1003274,199,187.285
G,2,817256,sinestep3.wav,None,1000,14,1005276,201,189.285
G,2,817256,sinestep5.wav,None,1000,14,1007261,198,191.285
G,2,817256,silence.wav,None,1000,14,1009262,212,193.285
G,2,817256,sinestep7_catch.wav,2,32,14,1011264,213,195.285
G,2,817256,vowelstep7_catch.wav,2,178,14,1013265,1179,197.285
G,2,817256,sinestep7.wav,None,1000,14,1015267,1013,199.285
G,2,817256,silence.wav,None,1000,14,1017268,203,201.285
G,2,817256,sinestep7.wav,None,1000,14,1019271,202,203.285
G,2,817256,sinestep3.wav,None,1000,14,1021273,208,205.285
G,2,817256,vowelstep7.wav,None,1000,14,1023274,205,207.285
G,2,817256,sinestep1.wav,None,1000,14,1025276,207,209.285
G,2,817256,silence.wav,None,1000,14,1027261,184,211.285
G,2,817256,silence.wav,None,1000,14,1029262,215,213.285
G,2,817256,vowelstep7.wav,None,1000,14,1031264,217,215.285
G,2,817256,vowelstep5.wav,None,1000,14,1033265,217,217.285
G,2,817256,sinestep7.wav,None,1000,14,1035267,195,219.285
G,2,817256,vowelstep5.wav,None,1000,14,1037269,210,221.285
G,2,817256,vowelstep5_catch.wav,2,485,14,1039271,208,223.285
G,2,817256,vowelstep7.wav,None,1000,14,1041272,727,225.285
G,2,817256,silence.wav,None,1000,14,1043274,217,227.285
G,2,817256,silence.wav,None,1000,14,1045276,196,229.285
G,2,817256,sinestep1.wav,None,1000,14,1047260,200,231.285
G,2,817256,silence.wav,None,1000,14,1049262,198,233.285
G,2,817256,vowelstep7.wav,None,1000,14,1051264,200,235.285
G,2,817256,vowelstep5.wav,None,1000,14,1053266,206,237.285
G,2,817256,vowelstep3.wav,None,1000,14,1055268,205,239.285
G,2,817256,vowelstep3_catch.wav,2,117,14,1057269,217,241.285
G,2,817256,sinestep1.wav,None,1000,14,1059271,1075,243.285
G,2,817256,silence.wav,None,1000,14,1061272,173,245.285
G,2,817256,sinestep7.wav,None,1000,14,1063274,194,247.285
G,2,817256,sinestep1.wav,None,1000,14,1065276,204,249.285
G,2,817256,sinestep3.wav,None,1000,14,1067277,202,251.285
G,2,817256,vowelstep3.wav,None,1000,14,1069262,182,253.285
G,2,817256,vowelstep1_catch.wav,None,1000,14,1071265,214,255.285
G,2,817256,sinestep7.wav,None,1000,14,1073266,212,257.285
G,2,817256,silence.wav,None,1000,14,1075268,214,259.285
G,2,817256,sinestep5.wav,None,1000,14,1077269,193,261.285
G,2,817256,sinestep5.wav,None,1000,14,1079271,208,263.285
G,2,817256,vowelstep5.wav,None,1000,14,1081272,209,265.285
G,2,817256,sinestep5.wav,None,1000,14,1083274,202,267.285
G,2,817256,sinestep7.wav,None,1000,14,1085276,189,269.285
G,2,817256,silence.wav,None,1000,14,1087277,195,271.285
G,2,817256,vowelstep7_catch.wav,2,210,14,1089263,194,273.285
G,2,817256,vowelstep5.wav,None,1000,14,1091265,1015,275.285
G,2,817256,silence.wav,None,1000,14,1093266,209,277.285
G,2,817256,sinestep3.wav,None,1000,14,1095268,203,279.285
G,2,817256,vowelstep5.wav,None,1000,14,1097269,205,281.285
G,2,817256,silence.wav,None,1000,14,1099271,207,283.285
G,2,817256,vowelstep1.wav,None,1000,14,1101272,199,285.285
G,2,817256,sinestep1.wav,None,1000,14,1103274,190,287.285
G,2,817256,vowelstep3.wav,None,1000,14,1105275,198,289.285
G,2,817256,vowelstep7.wav,None,1000,14,1107261,200,291.285
G,2,817256,vowelstep7.wav,None,1000,14,1109263,204,293.285
G,2,817256,sinestep1.wav,None,1000,14,1111264,199,295.285
G,2,817256,vowelstep5.wav,None,1000,14,1113266,214,297.285
G,2,817256,silence.wav,None,1000,14,1115268,210,299.285
G,2,817256,sinestep1.wav,None,1000,14,1117269,208,301.285
G,2,817256,vowelstep7.wav,None,1000,14,1119271,224,303.285
G,2,817256,vowelstep5_catch.wav,2,164,14,1121272,205,305.285
G,2,817256,vowelstep3.wav,None,1000,14,1123275,1038,307.285
G,2,817256,vowelstep3_catch.wav,2,192,14,1125276,204,309.285
G,2,817256,sinestep7.wav,None,1000,14,1127261,1017,311.285
G,2,817256,sinestep5.wav,None,1000,14,1129263,207,313.285
G,2,817256,vowelstep1.wav,None,1000,14,1131264,215,315.285
G,2,817256,vowelstep3.wav,None,1000,14,1133266,223,317.285
G,2,817256,vowelstep1.wav,None,1000,14,1135268,224,319.285
I,3,2078573,vowelstep7.wav,None,1000,14,2078590,0,1.285
I,3,2078573,sinestep1_catch.wav,2,175,14,2080592,186,3.285
I,3,2078573,sinestep3.wav,None,1000,14,2082593,1010,5.285
I,3,2078573,silence.wav,None,1000,14,2084595,183,7.285
I,3,2078573,vowelstep7.wav,None,1000,14,2086580,164,9.285
I,3,2078573,sinestep3_catch.wav,2,77,14,2088582,194,11.285
I,3,2078573,vowelstep3.wav,None,1000,14,2090584,1115,13.285
I,3,2078573,vowelstep3.wav,None,1000,14,2092585,204,15.285
I,3,2078573,silence.wav,None,1000,14,2094587,183,17.285
I,3,2078573,vowelstep1.wav,None,1000,14,2096588,183,19.285
I,3,2078573,vowelstep5.wav,None,1000,14,2098590,183,21.285
I,3,2078573,vowelstep7.wav,None,1000,14,2100592,190,23.285
I,3,2078573,sinestep1.wav,None,1000,14,2102593,126,25.285
I,3,2078573,vowelstep1.wav,None,1000,14,2104595,171,27.285
I,3,2078573,sinestep5_catch.wav,None,1000,14,2106581,173,29.285
I,3,2078573,sinestep5.wav,None,1000,14,2108582,202,31.285
I,3,2078573,vowelstep1.wav,None,1000,14,2110584,202,33.285
I,3,2078573,sinestep7.wav,None,1000,14,2112585,183,35.285
I,3,2078573,vowelstep3.wav,None,1000,14,2114587,193,37.285
I,3,2078573,vowelstep1.wav,None,1000,14,2116588,193,39.285
I,3,2078573,vowelstep1.wav,None,1000,14,2118590,194,41.285
I,3,2078573,sinestep3.wav,None,1000,14,2120591,203,43.285
I,3,2078573,sinestep5.wav,None,1000,14,2122593,183,45.285
I,3,2078573,sinestep5.wav,None,1000,14,2124579,184,47.285
I,3,2078573,vowelstep3.wav,None,1000,14,2126580,181,49.285
I,3,2078573,silence.wav,None,1000,14,2128582,192,51.285
I,3,2078573,sinestep7_catch.wav,2,35,14,2130584,191,53.285
I,3,2078573,silence.wav,None,1000,14,2132585,1156,55.285
I,3,2078573,sinestep1.wav,None,1000,14,2134587,201,57.285
I,3,2078573,vowelstep1.wav,None,1000,14,2136588,181,59.285
I,3,2078573,sinestep1.wav,None,1000,14,2138590,181,61.285
I,3,2078573,sinestep1.wav,None,1000,14,2140591,191,63.285
I,3,2078573,vowelstep7.wav,None,1000,14,2142577,190,65.285
I,3,2078573,sinestep5.wav,None,1000,14,2144579,191,67.285
I,3,2078573,sinestep5_catch.wav,2,391,14,2146580,191,69.285
I,3,2078573,vowelstep7.wav,None,1000,14,2148582,799,71.285
I,3,2078573,vowelstep5.wav,None,1000,14,2150584,200,73.285
I,3,2078573,sinestep3.wav,None,1000,14,2152585,180,75.285
I,3,2078573,vowelstep1.wav,None,1000,14,2154587,182,77.285
I,3,2078573,sinestep3.wav,None,1000,14,2156588,192,79.285
I,3,2078573,sinestep5.wav,None,1000,14,2158591,189,81.285
I,3,2078573,sinestep5.wav,None,1000,14,2160592,188,83.285
I,3,2078573,vowelstep5.wav,None,1000,14,2162594,199,85.285
I,3,2078573,vowelstep7.wav,None,1000,14,2164579,180,87.285
I,3,2078573,sinestep3.wav,None,1000,14,2166580,206,89.285
I,3,2078573,vowelstep3.wav,None,1000,14,2168582,185,91.285
I,3,2078573,sinestep3.wav,None,1000,14,2170584,195,93.285
I,3,2078573,vowelstep5.wav,None,1000,14,2172585,196,95.285
I,3,2078573,sinestep7.wav,None,1000,14,2174587,197,97.285
I,3,2078573,sinestep3_catch.wav,None,1000,14,2176589,197,99.285
I,3,2078573,sinestep1_catch.wav,2,86,14,2178591,182,101.285
I,3,2078573,vowelstep3.wav,None,1000,14,2180592,1095,103.285
I,3,2078573,vowelstep3.wav,None,1000,14,2182594,182,105.285
I,3,2078573,vowelstep5.wav,None,1000,14,2184579,191,107.285
I,3,2078573,sinestep5.wav,None,1000,14,2186580,190,109.285
I,3,2078573,vowelstep5.wav,None,1000,14,2188582,191,111.285
I,3,2078573,vowelstep5.wav,None,1000,14,2190584,190,113.285
I,3,2078573,vowelstep1.wav,None,1000,14,2192585,201,115.285
I,3,2078573,vowelstep1_catch.wav,2,87,14,2194588,199,117.285
I,3,2078573,sinestep7.wav,None,1000,14,2196589,1091,119.285
I,3,2078573,vowelstep3.wav,None,1000,14,2198591,179,121.285
I,3,2078573,sinestep7.wav,None,1000,14,2200592,189,123.285
I,3,2078573,sinestep7.wav,None,1000,14,2202594,189,125.285
I,3,2078573,vowelstep7.wav,None,1000,14,2204579,198,127.285
I,3,2078573,vowelstep3.wav,None,1000,14,2206580,198,129.285
I,3,2078573,sinestep5.wav,None,1000,14,2208582,200,131.285
I,3,2078573,sinestep5.wav,None,1000,14,2210583,199,133.285
I,3,2078573,vowelstep3.wav,None,1000,14,2212586,208,135.285
I,3,2078573,sinestep5.wav,None,1000,14,2214588,187,137.285
I,3,2078573,sinestep1.wav,None,1000,14,2216589,189,139.285
I,3,2078573,vowelstep7.wav,None,1000,14,2218591,188,141.285
I,3,2078573,silence.wav,None,1000,14,2220592,197,143.285
I,3,2078573,vowelstep7.wav,None,1000,14,2222594,179,145.285
I,3,2078573,silence.wav,None,1000,14,2224579,179,147.285
I,3,2078573,sinestep1.wav,None,1000,14,2226580,169,149.285
I,3,2078573,vowelstep1.wav,None,1000,14,2228583,187,151.285
I,3,2078573,vowelstep3.wav,None,1000,14,2230584,187,153.285
I,3,2078573,silence.wav,None,1000,14,2232586,196,155.285
I,3,2078573,silence.wav,None,1000,14,2234588,196,157.285
I,3,2078573,vowelstep1.wav,None,1000,14,2236589,195,159.285
I,3,2078573,sinestep1.wav,None,1000,14,2238591,195,161.285
I,3,2078573,vowelstep3_catch.wav,2,38,14,2240592,176,163.285
I,3,2078573,sinestep1.wav,None,1000,14,2242594,1147,165.285
I,3,2078573,vowelstep5.wav,None,1000,14,2244579,185,167.285
I,3,2078573,vowelstep5_catch.wav,2,110,14,2246581,185,169.285
I,3,2078573,sinestep1.wav,None,1000,14,2248583,1080,171.285
I,3,2078573,silence.wav,None,1000,14,2250584,194,173.285
I,3,2078573,vowelstep5.wav,None,1000,14,2252586,194,175.285
I,3,2078573,sinestep3.wav,None,1000,14,2254588,203,177.285
I,3,2078573,sinestep3.wav,None,1000,14,2256589,185,179.285
I,3,2078573,silence.wav,None,1000,14,2258591,183,181.285
I,3,2078573,silence.wav,None,1000,14,2260592,184,183.285
I,3,2078573,vowelstep3.wav,None,1000,14,2262594,195,185.285
I,3,2078573,vowelstep7.wav,None,1000,14,2264580,173,187.285
I,3,2078573,vowelstep7.wav,None,1000,14,2266581,193,189.285
I,3,2078573,silence.wav,None,1000,14,2268583,202,191.285
I,3,2078573,sinestep3.wav,None,1000,14,2270584,182,193.285
I,3,2078573,sinestep3.wav,None,1000,14,2272586,183,195.285
I,3,2078573,vowelstep5.wav,2,570,14,2274588,182,197.285
I,3,2078573,vowelstep1.wav,None,1000,14,2276589,622,199.285
I,3,2078573,vowelstep1.wav,None,1000,14,2278591,193,201.285
I,3,2078573,sinestep5.wav,None,1000,14,2280592,171,203.285
I,3,2078573,silence.wav,None,1000,14,2282578,170,205.285
I,3,2078573,sinestep5.wav,None,1000,14,2284580,201,207.285
I,3,2078573,sinestep7.wav,None,1000,14,2286581,202,209.285
I,3,2078573,sinestep1.wav,None,1000,14,2288583,182,211.285
I,3,2078573,sinestep5.wav,None,1000,14,2290584,191,213.285
I,3,2078573,vowelstep5.wav,None,1000,14,2292586,193,215.285
I,3,2078573,sinestep7.wav,None,1000,14,2294587,192,217.285
I,3,2078573,sinestep5.wav,None,1000,14,2296589,203,219.285
I,3,2078573,sinestep3.wav,None,1000,14,2298592,182,221.285
I,3,2078573,silence.wav,None,1000,14,2300593,181,223.285
I,3,2078573,vowelstep7_catch.wav,2,111,14,2302578,181,225.285
I,3,2078573,sinestep7.wav,None,1000,14,2304580,1078,227.285
I,3,2078573,sinestep7.wav,None,1000,14,2306581,191,229.285
I,3,2078573,sinestep3.wav,None,1000,14,2308583,192,231.285
I,3,2078573,vowelstep3.wav,None,1000,14,2310584,201,233.285
I,3,2078573,silence.wav,None,1000,14,2312586,181,235.285
I,3,2078573,sinestep3.wav,None,1000,14,2314587,181,237.285
I,3,2078573,sinestep5.wav,None,1000,14,2316590,181,239.285
I,3,2078573,silence.wav,None,1000,14,2318592,190,241.285
I,3,2078573,vowelstep3.wav,None,1000,14,2320593,190,243.285
I,3,2078573,sinestep1.wav,None,1000,14,2322578,190,245.285
I,3,2078573,sinestep1.wav,None,1000,14,2324580,188,247.285
I,3,2078573,sinestep7.wav,None,1000,14,2326581,200,249.285
I,3,2078573,vowelstep7.wav,None,1000,14,2328583,200,251.285
I,3,2078573,vowelstep5.wav,None,1000,14,2330584,200,253.285
I,3,2078573,silence.wav,None,1000,14,2332586,179,255.285
I,3,2078573,sinestep3.wav,None,1000,14,2334588,189,257.285
I,3,2078573,vowelstep1.wav,None,1000,14,2336590,189,259.285
I,3,2078573,vowelstep1.wav,None,1000,14,2338591,189,261.285
I,3,2078573,silence.wav,None,1000,14,2340593,166,263.285
I,3,2078573,vowelstep3.wav,None,1000,14,2342578,179,265.285
I,3,2078573,silence.wav,None,1000,14,2344579,200,267.285
I,3,2078573,silence.wav,None,1000,14,2346581,189,269.285
I,3,2078573,sinestep7.wav,None,1000,14,2348583,189,271.285
I,3,2078573,sinestep7.wav,None,1000,14,2350584,189,273.285
I,3,2078573,vowelstep5.wav,None,1000,14,2352587,188,275.285
I,3,2078573,silence.wav,None,1000,14,2354588,197,277.285
I,3,2078573,silence.wav,None,1000,14,2356590,178,279.285
I,3,2078573,sinestep1.wav,None,1000,14,2358591,178,281.285
I,3,2078573,silence.wav,None,1000,14,2360593,178,283.285
I,3,2078573,vowelstep7.wav,None,1000,14,2362578,188,285.285
I,3,2078573,vowelstep5_catch.wav,2,419,14,2364579,188,287.285
I,3,2078573,sinestep7.wav,None,1000,14,2366581,769,289.285
I,3,2078573,sinestep1.wav,None,1000,14,2368584,197,291.285
I,3,2078573,vowelstep3_catch.wav,2,238,14,2370585,197,293.285
I,3,2078573,sinestep1.wav,None,1000,14,2372587,959,295.285
I,3,2078573,vowelstep7.wav,None,1000,14,2374588,206,297.285
I,3,2078573,sinestep3.wav,None,1000,14,2376590,187,299.285
I,3,2078573,vowelstep5.wav,None,1000,14,2378591,188,301.285
I,3,2078573,vowelstep1_catch.wav,2,231,14,2380593,188,303.285
I,3,2078573,vowelstep7.wav,None,1000,14,2382578,932,305.285
I,3,2078573,vowelstep5.wav,None,1000,14,2384579,196,307.285
I,3,2078573,sinestep1_catch.wav,2,103,14,2386582,207,309.285
I,3,2078573,silence.wav,None,1000,14,2388584,1102,311.285
I,3,2078573,sinestep7.wav,None,1000,14,2390585,186,313.285
I,3,2078573,silence.wav,None,1000,14,2392587,186,315.285
I,3,2078573,vowelstep1.wav,None,1000,14,2394588,186,317.285
I,3,2078573,sinestep7.wav,None,1000,14,2396590,195,319.285
F,4,2466760,sinestep1.wav,None,1000,14,2466765,0,1.285
F,4,2466760,vowelstep5.wav,None,1000,14,2468767,190,3.285
F,4,2466760,vowelstep3.wav,None,1000,14,2470768,187,5.285
F,4,2466760,sinestep5.wav,None,1000,14,2472770,200,7.285
F,4,2466760,vowelstep7.wav,None,1000,14,2474773,198,9.285
F,4,2466760,silence.wav,None,1000,14,2476774,177,11.285
F,4,2466760,vowelstep5.wav,None,1000,14,2478776,175,13.285
F,4,2466760,sinestep3.wav,None,1000,14,2480777,188,15.285
F,4,2466760,sinestep3.wav,None,1000,14,2482779,185,17.285
F,4,2466760,silence.wav,None,1000,14,2484780,198,19.285
F,4,2466760,vowelstep7.wav,None,1000,14,2486765,197,21.285
F,4,2466760,vowelstep7.wav,None,1000,14,2488767,198,23.285
F,4,2466760,vowelstep1_catch.wav,2,168,14,2490769,207,25.285
F,4,2466760,vowelstep3_catch.wav,2,280,14,2492771,1038,27.285
F,4,2466760,vowelstep1.wav,None,1000,14,2494773,907,29.285
F,4,2466760,sinestep5.wav,None,1000,14,2496774,187,31.285
F,4,2466760,sinestep5.wav,None,1000,14,2498776,195,33.285
F,4,2466760,vowelstep7.wav,None,1000,14,2500777,167,35.285
F,4,2466760,sinestep3.wav,None,1000,14,2502779,177,37.285
F,4,2466760,sinestep7.wav,None,1000,14,2504780,177,39.285
F,4,2466760,vowelstep5_catch.wav,2,123,14,2506765,176,41.285
F,4,2466760,sinestep1.wav,None,1000,14,2508768,1064,43.285
F,4,2466760,vowelstep7_catch.wav,2,113,14,2510769,185,45.285
F,4,2466760,vowelstep3.wav,None,1000,14,2512771,1072,47.285
F,4,2466760,sinestep1.wav,None,1000,14,2514772,195,49.285
F,4,2466760,sinestep7.wav,None,1000,14,2516774,195,51.285
F,4,2466760,silence.wav,None,1000,14,2518776,196,53.285
F,4,2466760,sinestep7.wav,None,1000,14,2520777,175,55.285
F,4,2466760,vowelstep1.wav,None,1000,14,2522779,175,57.285
F,4,2466760,vowelstep3.wav,None,1000,14,2524780,186,59.285
F,4,2466760,vowelstep7_catch.wav,2,248,14,2526766,183,61.285
F,4,2466760,sinestep5.wav,None,1000,14,2528768,944,63.285
F,4,2466760,sinestep3.wav,None,1000,14,2530769,194,65.285
F,4,2466760,vowelstep3.wav,None,1000,14,2532771,194,67.285
F,4,2466760,silence.wav,None,1000,14,2534772,204,69.285
F,4,2466760,vowelstep1.wav,None,1000,14,2536774,184,71.285
F,4,2466760,vowelstep1.wav,None,1000,14,2538776,185,73.285
F,4,2466760,vowelstep5_catch.wav,2,192,14,2540777,185,75.285
F,4,2466760,silence.wav,None,1000,14,2542779,1002,77.285
F,4,2466760,vowelstep3.wav,None,1000,14,2544781,174,79.285
F,4,2466760,vowelstep5.wav,None,1000,14,2546766,174,81.285
F,4,2466760,vowelstep3_catch.wav,2,152,14,2548768,205,83.285
F,4,2466760,vowelstep3.wav,None,1000,14,2550769,1030,85.285
F,4,2466760,sinestep7.wav,None,1000,14,2552771,184,87.285
F,4,2466760,vowelstep1.wav,None,1000,14,2554772,184,89.285
F,4,2466760,sinestep1.wav,None,1000,14,2556774,194,91.285
F,4,2466760,vowelstep1_catch.wav,2,268,14,2558776,193,93.285
F,4,2466760,vowelstep5.wav,None,1000,14,2560778,925,95.285
F,4,2466760,sinestep7.wav,None,1000,14,2562780,203,97.285
F,4,2466760,vowelstep7.wav,None,1000,14,2564781,183,99.285
F,4,2466760,vowelstep3.wav,None,1000,14,2566766,181,101.285
F,4,2466760,sinestep3.wav,None,1000,14,2568768,212,103.285
F,4,2466760,silence.wav,None,1000,14,2570769,192,105.285
F,4,2466760,sinestep1.wav,None,1000,14,2572771,192,107.285
F,4,2466760,sinestep1.wav,None,1000,14,2574772,192,109.285
F,4,2466760,silence.wav,None,1000,14,2576774,203,111.285
F,4,2466760,sinestep7.wav,None,1000,14,2578776,182,113.285
F,4,2466760,vowelstep3.wav,None,1000,14,2580778,182,115.285
F,4,2466760,sinestep3.wav,None,1000,14,2582780,181,117.285
F,4,2466760,vowelstep3.wav,None,1000,14,2584781,182,119.285
F,4,2466760,vowelstep7.wav,None,1000,14,2586766,170,121.285
F,4,2466760,vowelstep7.wav,None,1000,14,2588768,191,123.285
F,4,2466760,vowelstep5.wav,None,1000,14,2590769,191,125.285
F,4,2466760,sinestep1.wav,None,1000,14,2592771,202,127.285
F,4,2466760,silence.wav,None,1000,14,2594772,181,129.285
F,4,2466760,sinestep1.wav,None,1000,14,2596775,181,131.285
F,4,2466760,sinestep3.wav,None,1000,14,2598776,190,133.285
F,4,2466760,sinestep1_catch.wav,2,51,14,2600778,191,135.285
F,4,2466760,sinestep3.wav,None,1000,14,2602780,1139,137.285
F,4,2466760,sinestep3.wav,None,1000,14,2604781,191,139.285
F,4,2466760,silence.wav,None,1000,14,2606766,181,141.285
F,4,2466760,silence.wav,None,1000,14,2608768,200,143.285
F,4,2466760,sinestep7.wav,None,1000,14,2610769,201,145.285
F,4,2466760,sinestep5.wav,None,1000,14,2612771,180,147.285
F,4,2466760,vowelstep1.wav,None,1000,14,2614773,190,149.285
F,4,2466760,sinestep7.wav,None,1000,14,2616775,191,151.285
F,4,2466760,silence.wav,None,1000,14,2618776,189,153.285
F,4,2466760,sinestep3_catch.wav,2,376,14,2620778,170,155.285
F,4,2466760,vowelstep5.wav,None,1000,14,2622780,803,157.285
F,4,2466760,sinestep3.wav,None,1000,14,2624781,179,159.285
F,4,2466760,vowelstep5.wav,None,1000,14,2626766,189,161.285
F,4,2466760,sinestep3.wav,None,1000,14,2628768,188,163.285
F,4,2466760,vowelstep3.wav,None,1000,14,2630770,188,165.285
F,4,2466760,vowelstep1.wav,None,1000,14,2632772,188,167.285
F,4,2466760,sinestep5.wav,None,1000,14,2634773,200,169.285
F,4,2466760,vowelstep5.wav,None,1000,14,2636775,180,171.285
F,4,2466760,vowelstep1.wav,None,1000,14,2638776,178,173.285
F,4,2466760,vowelstep1.wav,None,1000,14,2640778,178,175.285
F,4,2466760,sinestep7.wav,None,1000,14,2642779,186,177.285
F,4,2466760,vowelstep1.wav,None,1000,14,2644781,188,179.285
F,4,2466760,sinestep5.wav,None,1000,14,2646766,188,181.285
F,4,2466760,vowelstep7.wav,None,1000,14,2648769,198,183.285
F,4,2466760,sinestep1.wav,None,1000,14,2650770,196,185.285
F,4,2466760,vowelstep7.wav,None,1000,14,2652772,197,187.285
F,4,2466760,sinestep5.wav,None,1000,14,2654773,207,189.285
F,4,2466760,vowelstep5.wav,None,1000,14,2656775,186,191.285
F,4,2466760,silence.wav,None,1000,14,2658776,184,193.285
F,4,2466760,sinestep7.wav,None,1000,14,2660778,186,195.285
F,4,2466760,vowelstep5.wav,None,1000,14,2662779,196,197.285
F,4,2466760,vowelstep7.wav,None,1000,14,2664781,166,199.285
F,4,2466760,silence.wav,None,1000,14,2666767,177,201.285
F,4,2466760,vowelstep1.wav,None,1000,14,2668768,206,203.285
F,4,2466760,vowelstep7.wav,None,1000,14,2670770,185,205.285
F,4,2466760,vowelstep7.wav,None,1000,14,2672772,186,207.285
F,4,2466760,vowelstep3.wav,None,1000,14,2674773,185,209.285
F,4,2466760,vowelstep3.wav,None,1000,14,2676775,185,211.285
F,4,2466760,silence.wav,None,1000,14,2678776,175,213.285
F,4,2466760,sinestep7.wav,None,1000,14,2680778,175,215.285
F,4,2466760,sinestep1.wav,None,1000,14,2682779,175,217.285
F,4,2466760,silence.wav,None,1000,14,2684765,174,219.285
F,4,2466760,vowelstep1.wav,None,1000,14,2686767,204,221.285
F,4,2466760,sinestep5_catch.wav,2,40,14,2688768,183,223.285
F,4,2466760,sinestep1.wav,None,1000,14,2690770,1153,225.285
F,4,2466760,silence.wav,None,1000,14,2692772,195,227.285
F,4,2466760,sinestep7.wav,None,1000,14,2694773,194,229.285
F,4,2466760,sinestep7.wav,None,1000,14,2696775,194,231.285
F,4,2466760,silence.wav,None,1000,14,2698776,204,233.285
F,4,2466760,vowelstep5.wav,None,1000,14,2700779,184,235.285
F,4,2466760,sinestep7.wav,None,1000,14,2702780,184,237.285
F,4,2466760,sinestep5.wav,None,1000,14,2704765,193,239.285
F,4,2466760,sinestep5.wav,None,1000,14,2706767,194,241.285
F,4,2466760,silence.wav,None,1000,14,2708768,193,243.285
F,4,2466760,vowelstep3.wav,None,1000,14,2710770,204,245.285
F,4,2466760,vowelstep3.wav,None,1000,14,2712771,174,247.285
F,4,2466760,silence.wav,None,1000,14,2714773,183,249.285
F,4,2466760,sinestep1.wav,None,1000,14,2716775,184,251.285
F,4,2466760,sinestep1.wav,None,1000,14,2718777,194,253.285
F,4,2466760,vowelstep5.wav,None,1000,14,2720779,192,255.285
F,4,2466760,silence.wav,None,1000,14,2722780,172,257.285
F,4,2466760,sinestep5.wav,None,1000,14,2724765,172,259.285
F,4,2466760,sinestep5.wav,None,1000,14,2726767,202,261.285
F,4,2466760,sinestep5.wav,None,1000,14,2728768,183,263.285
F,4,2466760,sinestep7.wav,None,1000,14,2730770,182,265.285
F,4,2466760,sinestep7_catch.wav,2,239,14,2732771,192,267.285
F,4,2466760,sinestep7_catch.wav,2,8,14,2734773,952,269.285
F,4,2466760,sinestep1.wav,None,1000,14,2736776,1182,271.285
F,4,2466760,vowelstep7.wav,None,1000,14,2738777,191,273.285
F,4,2466760,sinestep3.wav,None,1000,14,2740779,200,275.285
F,4,2466760,sinestep3.wav,None,1000,14,2742780,182,277.285
F,4,2466760,silence.wav,None,1000,14,2744765,183,279.285
F,4,2466760,sinestep5_catch.wav,2,671,14,2746767,180,281.285
F,4,2466760,sinestep5.wav,None,1000,14,2748768,520,283.285
F,4,2466760,silence.wav,None,1000,14,2750770,191,285.285
F,4,2466760,vowelstep5.wav,None,1000,14,2752771,191,287.285
F,4,2466760,silence.wav,None,1000,14,2754774,170,289.285
F,4,2466760,sinestep1.wav,None,1000,14,2756776,180,291.285
F,4,2466760,sinestep3.wav,None,1000,14,2758777,180,293.285
F,4,2466760,vowelstep3.wav,None,1000,14,2760779,180,295.285
F,4,2466760,silence.wav,None,1000,14,2762780,191,297.285
F,4,2466760,sinestep5.wav,None,1000,14,2764765,172,299.285
F,4,2466760,vowelstep5.wav,None,1000,14,2766767,190,301.285
F,4,2466760,vowelstep5.wav,None,1000,14,2768768,200,303.285
F,4,2466760,vowelstep1.wav,None,1000,14,2770771,199,305.285
F,4,2466760,sinestep3.wav,None,1000,14,2772772,179,307.285
F,4,2466760,silence.wav,None,1000,14,2774774,179,309.285
F,4,2466760,sinestep3_catch.wav,2,278,14,2776775,189,311.285
F,4,2466760,vowelstep1.wav,None,1000,14,2778777,910,313.285
F,4,2466760,vowelstep7.wav,None,1000,14,2780779,190,315.285
F,4,2466760,vowelstep7.wav,None,1000,14,2782780,199,317.285
F,4,2466760,vowelstep1.wav,None,1000,14,2784765,180,319.285
J,5,2845574,sinestep5_catch.wav,2,304,14,2845583,0,1.285
J,5,2845574,sinestep5.wav,None,1000,14,2847585,907,3.285
J,5,2845574,sinestep3.wav,None,1000,14,2849586,189,5.285
J,5,2845574,sinestep1.wav,None,1000,14,2851588,190,7.285
J,5,2845574,sinestep7.wav,None,1000,14,2853590,191,9.285
J,5,2845574,vowelstep3.wav,None,1000,14,2855591,190,11.285
J,5,2845574,sinestep1.wav,None,1000,14,2857593,180,13.285
J,5,2845574,vowelstep5.wav,None,1000,14,2859595,179,15.285
J,5,2845574,vowelstep3.wav,None,1000,14,2861580,179,17.285
J,5,2845574,vowelstep1.wav,None,1000,14,2863582,209,19.285
J,5,2845574,vowelstep1.wav,None,1000,14,2865583,189,21.285
J,5,2845574,sinestep3.wav,None,1000,14,2867585,190,23.285
J,5,2845574,silence.wav,None,1000,14,2869586,189,25.285
J,5,2845574,vowelstep7.wav,None,1000,14,2871588,180,27.285
J,5,2845574,sinestep3.wav,None,1000,14,2873589,179,29.285
J,5,2845574,sinestep7.wav,None,1000,14,2875592,177,31.285
J,5,2845574,silence.wav,None,1000,14,2877594,179,33.285
J,5,2845574,vowelstep5.wav,None,1000,14,2879595,189,35.285
J,5,2845574,sinestep1.wav,None,1000,14,2881580,189,37.285
J,5,2845574,sinestep1_catch.wav,2,373,14,2883582,199,39.285
J,5,2845574,sinestep7.wav,None,1000,14,2885583,824,41.285
J,5,2845574,vowelstep7.wav,None,1000,14,2887585,198,43.285
J,5,2845574,sinestep3_catch.wav,2,691,14,2889586,198,45.285
J,5,2845574,vowelstep3.wav,None,1000,14,2891588,518,47.285
J,5,2845574,vowelstep7.wav,None,1000,14,2893590,188,49.285
J,5,2845574,sinestep1.wav,None,1000,14,2895592,187,51.285
J,5,2845574,vowelstep3.wav,None,1000,14,2897594,187,53.285
J,5,2845574,vowelstep1.wav,None,1000,14,2899595,196,55.285
J,5,2845574,sinestep5.wav,None,1000,14,2901580,177,57.285
J,5,2845574,sinestep5_catch.wav,2,297,14,2903582,208,59.285
J,5,2845574,sinestep5.wav,None,1000,14,2905583,878,61.285
J,5,2845574,vowelstep7.wav,None,1000,14,2907585,187,63.285
J,5,2845574,sinestep7.wav,None,1000,14,2909586,188,65.285
J,5,2845574,vowelstep1.wav,None,1000,14,2911589,198,67.285
J,5,2845574,sinestep7_catch.wav,2,774,14,2913590,194,69.285
J,5,2845574,silence.wav,None,1000,14,2915592,391,71.285
J,5,2845574,vowelstep5.wav,None,1000,14,2917594,175,73.285
J,5,2845574,sinestep5.wav,None,1000,14,2919595,186,75.285
J,5,2845574,sinestep5.wav,None,1000,14,2921580,185,77.285
J,5,2845574,vowelstep3.wav,None,1000,14,2923582,185,79.285
J,5,2845574,vowelstep5.wav,None,1000,14,2925583,186,81.285
J,5,2845574,sinestep3.wav,None,1000,14,2927585,197,83.285
J,5,2845574,silence.wav,None,1000,14,2929587,196,85.285
J,5,2845574,vowelstep3.wav,None,1000,14,2931589,195,87.285
J,5,2845574,vowelstep7.wav,None,1000,14,2933590,204,89.285
J,5,2845574,silence.wav,None,1000,14,2935592,185,91.285
J,5,2845574,sinestep3.wav,None,1000,14,2937593,185,93.285
J,5,2845574,silence.wav,None,1000,14,2939595,186,95.285
J,5,2845574,sinestep1.wav,None,1000,14,2941580,196,97.285
J,5,2845574,sinestep5_catch.wav,2,328,14,2943581,195,99.285
J,5,2845574,sinestep7.wav,None,1000,14,2945584,867,101.285
J,5,2845574,sinestep5.wav,None,1000,14,2947586,204,103.285
J,5,2845574,sinestep5.wav,None,1000,14,2949587,174,105.285
J,5,2845574,sinestep3.wav,None,1000,14,2951589,184,107.285
J,5,2845574,sinestep3_catch.wav,2,581,14,2953590,183,109.285
J,5,2845574,sinestep3.wav,None,1000,14,2955592,612,111.285
J,5,2845574,silence.wav,None,1000,14,2957593,164,113.285
J,5,2845574,sinestep1.wav,None,1000,14,2959595,177,115.285
J,5,2845574,silence.wav,None,1000,14,2961580,176,117.285
J,5,2845574,vowelstep3.wav,None,1000,14,2963582,206,119.285
J,5,2845574,vowelstep5.wav,2,99,14,2965584,185,121.285
J,5,2845574,vowelstep7.wav,None,1000,14,2967586,1086,123.285
J,5,2845574,silence.wav,None,1000,14,2969587,185,125.285
J,5,2845574,sinestep1.wav,None,1000,14,2971589,195,127.285
J,5,2845574,sinestep3.wav,None,1000,14,2973590,194,129.285
J,5,2845574,sinestep7.wav,None,1000,14,2975592,196,131.285
J,5,2845574,silence.wav,None,1000,14,2977593,172,133.285
J,5,2845574,sinestep1.wav,None,1000,14,2979595,184,135.285
J,5,2845574,vowelstep7.wav,None,1000,14,2981581,184,137.285
J,5,2845574,sinestep5.wav,None,1000,14,2983582,185,139.285
J,5,2845574,vowelstep1.wav,None,1000,14,2985584,194,141.285
J,5,2845574,vowelstep7.wav,None,1000,14,2987586,194,143.285
J,5,2845574,vowelstep3.wav,None,1000,14,2989587,192,145.285
J,5,2845574,vowelstep3.wav,None,1000,14,2991589,184,147.285
J,5,2845574,sinestep7.wav,None,1000,14,2993590,183,149.285
J,5,2845574,vowelstep5.wav,None,1000,14,2995592,184,151.285
J,5,2845574,silence.wav,None,1000,14,2997594,184,153.285
J,5,2845574,sinestep1.wav,None,1000,14,2999579,174,155.285
J,5,2845574,sinestep3.wav,None,1000,14,3001581,192,157.285
J,5,2845574,silence.wav,None,1000,14,3003582,193,159.285
J,5,2845574,sinestep1.wav,None,1000,14,3005584,202,161.285
J,5,2845574,vowelstep7.wav,None,1000,14,3007585,183,163.285
J,5,2845574,vowelstep7.wav,None,1000,14,3009587,182,165.285
J,5,2845574,sinestep1_catch.wav,2,521,14,3011589,180,167.285
J,5,2845574,vowelstep1_catch.wav,2,173,14,3013590,672,169.285
J,5,2845574,vowelstep1.wav,None,1000,14,3015593,1018,171.285
J,5,2845574,vowelstep7.wav,None,1000,14,3017594,193,173.285
J,5,2845574,sinestep1.wav,None,1000,14,3019579,166,175.285
J,5,2845574,vowelstep5.wav,None,1000,14,3021581,202,177.285
J,5,2845574,vowelstep5.wav,None,1000,14,3023582,202,179.285
J,5,2845574,sinestep5.wav,None,1000,14,3025584,212,181.285
J,5,2845574,sinestep7.wav,None,1000,14,3027585,192,183.285
J,5,2845574,sinestep7.wav,None,1000,14,3029587,192,185.285
J,5,2845574,sinestep1.wav,None,1000,14,3031589,193,187.285
J,5,2845574,vowelstep1.wav,None,1000,14,3033591,192,189.285
J,5,2845574,silence.wav,None,1000,14,3035593,181,191.285
J,5,2845574,sinestep5.wav,None,1000,14,3037594,180,193.285
J,5,2845574,vowelstep5.wav,None,1000,14,3039579,181,195.285
J,5,2845574,vowelstep1.wav,None,1000,14,3041581,181,197.285
J,5,2845574,vowelstep1.wav,None,1000,14,3043582,190,199.285
J,5,2845574,sinestep3.wav,None,1000,14,3045584,190,201.285
J,5,2845574,sinestep3.wav,None,1000,14,3047585,201,203.285
J,5,2845574,silence.wav,None,1000,14,3049587,180,205.285
J,5,2845574,sinestep5.wav,None,1000,14,3051590,181,207.285
J,5,2845574,vowelstep1.wav,None,1000,14,3053591,179,209.285
J,5,2845574,vowelstep5.wav,None,1000,14,3055593,189,211.285
J,5,2845574,vowelstep3.wav,None,1000,14,3057594,189,213.285
J,5,2845574,vowelstep3.wav,None,1000,14,3059579,190,215.285
J,5,2845574,silence.wav,None,1000,14,3061581,189,217.285
J,5,2845574,sinestep1.wav,None,1000,14,3063582,198,219.285
J,5,2845574,vowelstep3.wav,None,1000,14,3065584,199,221.285
J,5,2845574,sinestep7.wav,None,1000,14,3067586,210,223.285
J,5,2845574,vowelstep7.wav,None,1000,14,3069588,175,225.285
J,5,2845574,silence.wav,None,1000,14,3071589,189,227.285
J,5,2845574,vowelstep5.wav,None,1000,14,3073591,188,229.285
J,5,2845574,silence.wav,None,1000,14,3075593,196,231.285
J,5,2845574,sinestep3.wav,None,1000,14,3077594,178,233.285
J,5,2845574,vowelstep5.wav,None,1000,14,3079596,178,235.285
J,5,2845574,vowelstep3.wav,None,1000,14,3081581,179,237.285
J,5,2845574,vowelstep5.wav,None,1000,14,3083582,208,239.285
J,5,2845574,vowelstep7.wav,None,1000,14,3085585,188,241.285
J,5,2845574,vowelstep1.wav,None,1000,14,3087586,187,243.285
J,5,2845574,sinestep7.wav,None,1000,14,3089588,197,245.285
J,5,2845574,sinestep7.wav,None,1000,14,3091589,198,247.285
J,5,2845574,silence.wav,None,1000,14,3093591,177,249.285
J,5,2845574,vowelstep1.wav,None,1000,14,3095593,177,251.285
J,5,2845574,vowelstep3_catch.wav,2,257,14,3097594,177,253.285
J,5,2845574,vowelstep1.wav,None,1000,14,3099596,929,255.285
J,5,2845574,vowelstep5_catch.wav,2,390,14,3101581,166,257.285
J,5,2845574,silence.wav,None,1000,14,3103583,796,259.285
J,5,2845574,sinestep5.wav,None,1000,14,3105585,192,261.285
J,5,2845574,vowelstep1.wav,None,1000,14,3107586,195,263.285
J,5,2845574,sinestep5.wav,None,1000,14,3109588,196,265.285
J,5,2845574,vowelstep3.wav,None,1000,14,3111589,175,267.285
J,5,2845574,sinestep5.wav,None,1000,14,3113591,186,269.285
J,5,2845574,sinestep7.wav,None,1000,14,3115593,186,271.285
J,5,2845574,silence.wav,None,1000,14,3117594,197,273.285
J,5,2845574,vowelstep7_catch.wav,None,1000,14,3119596,196,275.285
J,5,2845574,sinestep3.wav,None,1000,14,3121582,174,277.285
J,5,2845574,vowelstep5.wav,None,1000,14,3123583,196,279.285
J,5,2845574,silence.wav,None,1000,14,3125585,186,281.285
J,5,2845574,silence.wav,None,1000,14,3127586,186,283.285
J,5,2845574,silence.wav,None,1000,14,3129588,184,285.285
J,5,2845574,vowelstep7.wav,None,1000,14,3131589,185,287.285
J,5,2845574,sinestep3.wav,None,1000,14,3133591,195,289.285
J,5,2845574,vowelstep5_catch.wav,None,1000,14,3135592,175,291.285
J,5,2845574,silence.wav,None,1000,14,3137578,172,293.285
J,5,2845574,sinestep7.wav,None,1000,14,3139580,204,295.285
J,5,2845574,vowelstep1.wav,None,1000,14,3141582,203,297.285
J,5,2845574,silence.wav,None,1000,14,3143583,183,299.285
J,5,2845574,sinestep1.wav,None,1000,14,3145585,184,301.285
J,5,2845574,sinestep5.wav,None,1000,14,3147586,195,303.285
J,5,2845574,vowelstep5.wav,None,1000,14,3149588,193,305.285
J,5,2845574,vowelstep3.wav,None,1000,14,3151589,193,307.285
J,5,2845574,sinestep7.wav,None,1000,14,3153591,182,309.285
J,5,2845574,vowelstep7.wav,None,1000,14,3155593,184,311.285
J,5,2845574,vowelstep3_catch.wav,2,124,14,3157578,182,313.285
J,5,2845574,vowelstep1_catch.wav,2,165,14,3159580,1087,315.285
J,5,2845574,sinestep3.wav,None,1000,14,3161581,1026,317.285
J,5,2845574,sinestep1.wav,None,1000,14,3163583,191,319.285
H,6,3221401,sinestep3.wav,None,1000,14,3221415,0,1.285
H,6,3221401,sinestep7.wav,None,1000,14,3223416,185,3.285
H,6,3221401,sinestep3.wav,None,1000,14,3225419,185,5.285
H,6,3221401,vowelstep3.wav,None,1000,14,3227420,185,7.285
H,6,3221401,vowelstep1.wav,None,1000,14,3229422,194,9.285
H,6,3221401,sinestep7.wav,None,1000,14,3231407,174,11.285
H,6,3221401,vowelstep3.wav,None,1000,14,3233408,193,13.285
H,6,3221401,silence.wav,None,1000,14,3235410,203,15.285
H,6,3221401,vowelstep1.wav,None,1000,14,3237411,174,17.285
H,6,3221401,sinestep5.wav,None,1000,14,3239413,183,19.285
H,6,3221401,sinestep7.wav,None,1000,14,3241415,183,21.285
H,6,3221401,vowelstep7.wav,None,1000,14,3243417,193,23.285
H,6,3221401,vowelstep1_catch.wav,2,220,14,3245419,192,25.285
H,6,3221401,sinestep5.wav,None,1000,14,3247420,953,27.285
H,6,3221401,vowelstep5.wav,None,1000,14,3249422,172,29.285
H,6,3221401,silence.wav,None,1000,14,3251407,183,31.285
H,6,3221401,vowelstep3_catch.wav,2,332,14,3253408,183,33.285
H,6,3221401,sinestep7.wav,None,1000,14,3255410,850,35.285
H,6,3221401,sinestep5.wav,None,1000,14,3257411,192,37.285
H,6,3221401,silence.wav,None,1000,14,3259413,193,39.285
H,6,3221401,vowelstep3.wav,None,1000,14,3261415,188,41.285
H,6,3221401,vowelstep1.wav,None,1000,14,3263417,202,43.285
H,6,3221401,vowelstep1.wav,None,1000,14,3265419,180,45.285
H,6,3221401,vowelstep3.wav,None,1000,14,3267420,181,47.285
H,6,3221401,sinestep3.wav,None,1000,14,3269422,181,49.285
H,6,3221401,vowelstep1.wav,None,1000,14,3271407,191,51.285
H,6,3221401,sinestep7.wav,None,1000,14,3273408,191,53.285
H,6,3221401,vowelstep7.wav,None,1000,14,3275410,191,55.285
H,6,3221401,vowelstep5_catch.wav,2,164,14,3277412,191,57.285
H,6,3221401,vowelstep5.wav,None,1000,14,3279414,1015,59.285
H,6,3221401,vowelstep3.wav,None,1000,14,3281415,181,61.285
H,6,3221401,vowelstep7_catch.wav,2,148,14,3283417,181,63.285
H,6,3221401,sinestep3.wav,None,1000,14,3285419,1032,65.285
H,6,3221401,sinestep1.wav,None,1000,14,3287420,190,67.285
H,6,3221401,sinestep7.wav,None,1000,14,3289422,170,69.285
H,6,3221401,silence.wav,None,1000,14,3291407,171,71.285
H,6,3221401,vowelstep1.wav,None,1000,14,3293408,200,73.285
H,6,3221401,vowelstep7.wav,None,1000,14,3295411,200,75.285
H,6,3221401,sinestep7.wav,None,1000,14,3297412,181,77.285
H,6,3221401,sinestep1.wav,None,1000,14,3299414,189,79.285
H,6,3221401,sinestep7.wav,None,1000,14,3301415,190,81.285
H,6,3221401,sinestep1.wav,None,1000,14,3303417,189,83.285
H,6,3221401,vowelstep5.wav,None,1000,14,3305419,188,85.285
H,6,3221401,sinestep3.wav,None,1000,14,3307420,170,87.285
H,6,3221401,vowelstep5.wav,None,1000,14,3309422,179,89.285
H,6,3221401,silence.wav,None,1000,14,3311407,180,91.285
H,6,3221401,silence.wav,None,1000,14,3313409,210,93.285
H,6,3221401,sinestep5.wav,None,1000,14,3315411,188,95.285
H,6,3221401,sinestep3.wav,None,1000,14,3317412,189,97.285
H,6,3221401,sinestep7.wav,None,1000,14,3319414,189,99.285
H,6,3221401,sinestep7_catch.wav,2,555,14,3321415,198,101.285
H,6,3221401,silence.wav,None,1000,14,3323417,623,103.285
H,6,3221401,sinestep3.wav,None,1000,14,3325418,179,105.285
H,6,3221401,silence.wav,None,1000,14,3327420,179,107.285
H,6,3221401,vowelstep1.wav,None,1000,14,3329422,178,109.285
H,6,3221401,vowelstep7.wav,None,1000,14,3331407,168,111.285
H,6,3221401,sinestep5.wav,None,1000,14,3333409,187,113.285
H,6,3221401,silence.wav,None,1000,14,3335411,197,115.285
H,6,3221401,vowelstep7.wav,None,1000,14,3337412,197,117.285
H,6,3221401,vowelstep3.wav,None,1000,14,3339414,197,119.285
H,6,3221401,sinestep5.wav,None,1000,14,3341415,178,121.285
H,6,3221401,sinestep1.wav,None,1000,14,3343417,187,123.285
H,6,3221401,vowelstep3.wav,None,1000,14,3345418,188,125.285
H,6,3221401,vowelstep3.wav,None,1000,14,3347421,187,127.285
H,6,3221401,vowelstep5.wav,None,1000,14,3349406,196,129.285
H,6,3221401,vowelstep1.wav,None,1000,14,3351407,196,131.285
H,6,3221401,vowelstep7.wav,None,1000,14,3353409,195,133.285
H,6,3221401,vowelstep3.wav,None,1000,14,3355411,176,135.285
H,6,3221401,vowelstep5.wav,None,1000,14,3357412,184,137.285
H,6,3221401,vowelstep5.wav,None,1000,14,3359414,187,139.285
H,6,3221401,sinestep7.wav,None,1000,14,3361415,186,141.285
H,6,3221401,vowelstep1.wav,None,1000,14,3363417,196,143.285
H,6,3221401,sinestep3.wav,None,1000,14,3365419,176,145.285
H,6,3221401,sinestep1.wav,None,1000,14,3367421,175,147.285
H,6,3221401,vowelstep1.wav,None,1000,14,3369406,175,149.285
H,6,3221401,sinestep5_catch.wav,2,175,14,3371407,184,151.285
H,6,3221401,sinestep7.wav,None,1000,14,3373409,1010,153.285
H,6,3221401,sinestep3_catch.wav,2,100,14,3375411,185,155.285
H,6,3221401,sinestep7.wav,None,1000,14,3377412,1094,157.285
H,6,3221401,sinestep5.wav,None,1000,14,3379414,195,159.285
H,6,3221401,silence.wav,None,1000,14,3381415,195,161.285
H,6,3221401,sinestep1_catch.wav,2,211,14,3383418,175,163.285
H,6,3221401,vowelstep7.wav,None,1000,14,3385419,972,165.285
H,6,3221401,vowelstep7.wav,None,1000,14,3387421,184,167.285
H,6,3221401,sinestep7.wav,None,1000,14,3389406,183,169.285
H,6,3221401,sinestep3.wav,None,1000,14,3391407,184,171.285
H,6,3221401,sinestep5.wav,None,1000,14,3393409,194,173.285
H,6,3221401,vowelstep1_catch.wav,2,226,14,3395410,194,175.285
H,6,3221401,vowelstep1.wav,None,1000,14,3397412,967,177.285
H,6,3221401,sinestep3.wav,None,1000,14,3399414,174,179.285
H,6,3221401,sinestep3.wav,None,1000,14,3401416,183,181.285
H,6,3221401,vowelstep5.wav,None,1000,14,3403418,184,183.285
H,6,3221401,sinestep1.wav,None,1000,14,3405419,183,185.285
H,6,3221401,sinestep1.wav,None,1000,14,3407421,173,187.285
H,6,3221401,vowelstep7.wav,None,1000,14,3409406,173,189.285
H,6,3221401,sinestep1.wav,None,1000,14,3411407,193,191.285
H,6,3221401,sinestep5.wav,None,1000,14,3413409,184,193.285
H,6,3221401,vowelstep3_catch.wav,2,127,14,3415410,183,195.285
H,6,3221401,sinestep1.wav,None,1000,14,3417413,1057,197.285
H,6,3221401,silence.wav,None,1000,14,3419415,183,199.285
H,6,3221401,vowelstep1.wav,None,1000,14,3421416,192,201.285
H,6,3221401,vowelstep5_catch.wav,2,98,14,3423418,192,203.285
H,6,3221401,sinestep5.wav,None,1000,14,3425419,1073,205.285
H,6,3221401,sinestep1.wav,None,1000,14,3427421,172,207.285
H,6,3221401,silence.wav,None,1000,14,3429406,182,209.285
H,6,3221401,sinestep3.wav,None,1000,14,3431407,202,211.285
H,6,3221401,silence.wav,None,1000,14,3433409,192,213.285
H,6,3221401,vowelstep7_catch.wav,2,162,14,3435411,192,215.285
H,6,3221401,vowelstep5.wav,None,1000,14,3437413,1028,217.285
H,6,3221401,sinestep7.wav,None,1000,14,3439415,190,219.285
H,6,3221401,silence.wav,None,1000,14,3441416,182,221.285
H,6,3221401,sinestep1.wav,None,1000,14,3443418,178,223.285
H,6,3221401,silence.wav,None,1000,14,3445419,181,225.285
H,6,3221401,silence.wav,None,1000,14,3447421,178,227.285
H,6,3221401,silence.wav,None,1000,14,3449406,162,229.285
H,6,3221401,silence.wav,None,1000,14,3451407,188,231.285
H,6,3221401,sinestep5.wav,None,1000,14,3453410,191,233.285
H,6,3221401,silence.wav,None,1000,14,3455411,200,235.285
H,6,3221401,vowelstep3.wav,None,1000,14,3457413,179,237.285
H,6,3221401,silence.wav,None,1000,14,3459414,180,239.285
H,6,3221401,silence.wav,None,1000,14,3461416,180,241.285
H,6,3221401,vowelstep1_catch.wav,2,173,14,3463418,190,243.285
H,6,3221401,vowelstep5.wav,2,60,14,3465419,1017,245.285
H,6,3221401,vowelstep7.wav,None,1000,14,3467421,1129,247.285
H,6,3221401,vowelstep3_catch.wav,2,280,14,3469406,170,249.285
H,6,3221401,vowelstep1.wav,None,1000,14,3471408,919,251.285
H,6,3221401,sinestep3.wav,None,1000,14,3473410,199,253.285
H,6,3221401,vowelstep5_catch.wav,2,222,14,3475411,209,255.285
H,6,3221401,vowelstep5.wav,None,1000,14,3477413,966,257.285
H,6,3221401,silence.wav,None,1000,14,3479414,189,259.285
H,6,3221401,vowelstep7.wav,None,1000,14,3481416,189,261.285
H,6,3221401,sinestep5.wav,None,1000,14,3483418,189,263.285
H,6,3221401,vowelstep5.wav,None,1000,14,3485419,179,265.285
H,6,3221401,vowelstep7.wav,None,1000,14,3487422,177,267.285
H,6,3221401,vowelstep3.wav,None,1000,14,3489407,172,269.285
H,6,3221401,vowelstep3.wav,None,1000,14,3491408,188,271.285
H,6,3221401,silence.wav,None,1000,14,3493410,199,273.285
H,6,3221401,vowelstep3.wav,None,1000,14,3495411,199,275.285
H,6,3221401,sinestep1.wav,None,1000,14,3497413,207,277.285
H,6,3221401,silence.wav,None,1000,14,3499414,188,279.285
H,6,3221401,sinestep1.wav,None,1000,14,3501416,188,281.285
H,6,3221401,vowelstep3.wav,None,1000,14,3503418,188,283.285
H,6,3221401,silence.wav,None,1000,14,3505420,199,285.285
H,6,3221401,vowelstep5.wav,None,1000,14,3507422,197,287.285
H,6,3221401,vowelstep5.wav,None,1000,14,3509407,197,289.285
H,6,3221401,vowelstep1.wav,None,1000,14,3511408,199,291.285
H,6,3221401,sinestep5.wav,None,1000,14,3513410,207,293.285
H,6,3221401,vowelstep7.wav,None,1000,14,3515411,207,295.285
H,6,3221401,vowelstep1.wav,None,1000,14,3517413,217,297.285
H,6,3221401,vowelstep7.wav,None,1000,14,3519414,187,299.285
H,6,3221401,vowelstep3.wav,None,1000,14,3521416,196,301.285
H,6,3221401,sinestep1.wav,None,1000,14,3523418,198,303.285
H,6,3221401,sinestep5.wav,None,1000,14,3525420,205,305.285
H,6,3221401,vowelstep5.wav,None,1000,14,3527422,206,307.285
H,6,3221401,sinestep3.wav,None,1000,14,3529407,186,309.285
H,6,3221401,vowelstep7.wav,None,1000,14,3531408,206,311.285
H,6,3221401,sinestep7.wav,None,1000,14,3533410,196,313.285
H,6,3221401,sinestep5.wav,None,1000,14,3535411,196,315.285
H,6,3221401,sinestep3.wav,None,1000,14,3537413,196,317.285
H,6,3221401,sinestep1.wav,None,1000,14,3539414,205,319.285
C,7,3598137,sinestep1.wav,None,1000,14,3598148,0,1.285
C,7,3598137,vowelstep1.wav,None,1000,14,3600149,198,3.285
C,7,3598137,sinestep1.wav,None,1000,14,3602151,199,5.285
C,7,3598137,sinestep1.wav,None,1000,14,3604152,209,7.285
C,7,3598137,vowelstep1.wav,None,1000,14,3606154,209,9.285
C,7,3598137,sinestep1.wav,None,1000,14,3608155,188,11.285
C,7,3598137,sinestep7.wav,None,1000,14,3610141,187,13.285
C,7,3598137,vowelstep7.wav,None,1000,14,3612143,187,15.285
C,7,3598137,vowelstep3.wav,None,1000,14,3614144,198,17.285
C,7,3598137,vowelstep5.wav,None,1000,14,3616146,198,19.285
C,7,3598137,silence.wav,None,1000,14,3618148,197,21.285
C,7,3598137,sinestep3.wav,None,1000,14,3620149,206,23.285
C,7,3598137,vowelstep5.wav,None,1000,14,3622151,186,25.285
C,7,3598137,sinestep1.wav,None,1000,14,3624152,187,27.285
C,7,3598137,vowelstep1.wav,None,1000,14,3626154,187,29.285
C,7,3598137,vowelstep7.wav,None,1000,14,3628156,197,31.285
C,7,3598137,vowelstep3.wav,None,1000,14,3630158,196,33.285
C,7,3598137,sinestep1.wav,None,1000,14,3632143,196,35.285
C,7,3598137,sinestep5.wav,None,1000,14,3634144,195,37.285
C,7,3598137,silence.wav,None,1000,14,3636146,206,39.285
C,7,3598137,vowelstep7.wav,None,1000,14,3638147,206,41.285
C,7,3598137,vowelstep5.wav,None,1000,14,3640149,206,43.285
C,7,3598137,sinestep5.wav,None,1000,14,3642151,195,45.285
C,7,3598137,silence.wav,None,1000,14,3644152,196,47.285
C,7,3598137,sinestep5.wav,None,1000,14,3646155,195,49.285
C,7,3598137,sinestep1.wav,None,1000,14,3648156,195,51.285
C,7,3598137,silence.wav,None,1000,14,3650158,170,53.285
C,7,3598137,vowelstep1.wav,None,1000,14,3652143,185,55.285
C,7,3598137,vowelstep1.wav,None,1000,14,3654144,205,57.285
C,7,3598137,sinestep1.wav,None,1000,14,3656146,194,59.285
C,7,3598137,silence.wav,None,1000,14,3658147,193,61.285
C,7,3598137,vowelstep5.wav,None,1000,14,3660149,195,63.285
C,7,3598137,vowelstep3.wav,None,1000,14,3662152,194,65.285
C,7,3598137,vowelstep3.wav,None,1000,14,3664153,184,67.285
C,7,3598137,vowelstep7.wav,None,1000,14,3666155,184,69.285
C,7,3598137,silence.wav,None,1000,14,3668156,184,71.285
C,7,3598137,vowelstep3.wav,None,1000,14,3670158,183,73.285
C,7,3598137,silence.wav,None,1000,14,3672143,191,75.285
C,7,3598137,sinestep5.wav,None,1000,14,3674144,193,77.285
C,7,3598137,vowelstep7.wav,None,1000,14,3676146,193,79.285
C,7,3598137,vowelstep1_catch.wav,2,323,14,3678147,204,81.285
C,7,3598137,vowelstep3.wav,None,1000,14,3680150,881,83.285
C,7,3598137,sinestep7.wav,None,1000,14,3682152,202,85.285
C,7,3598137,vowelstep3.wav,None,1000,14,3684153,192,87.285
C,7,3598137,sinestep1.wav,None,1000,14,3686155,192,89.285
C,7,3598137,sinestep7.wav,None,1000,14,3688156,193,91.285
C,7,3598137,sinestep7.wav,None,1000,14,3690158,192,93.285
C,7,3598137,sinestep3.wav,None,1000,14,3692143,172,95.285
C,7,3598137,vowelstep3_catch.wav,2,176,14,3694144,202,97.285
C,7,3598137,sinestep5.wav,None,1000,14,3696146,1025,99.285
C,7,3598137,sinestep5.wav,None,1000,14,3698148,208,101.285
C,7,3598137,vowelstep3.wav,None,1000,14,3700150,191,103.285
C,7,3598137,vowelstep5.wav,None,1000,14,3702151,191,105.285
C,7,3598137,sinestep1.wav,None,1000,14,3704153,191,107.285
C,7,3598137,sinestep3.wav,None,1000,14,3706155,201,109.285
C,7,3598137,vowelstep5.wav,None,1000,14,3708156,182,111.285
C,7,3598137,vowelstep7.wav,None,1000,14,3710158,181,113.285
C,7,3598137,vowelstep1.wav,None,1000,14,3712143,181,115.285
C,7,3598137,sinestep7.wav,None,1000,14,3714144,211,117.285
C,7,3598137,sinestep3.wav,None,1000,14,3716147,190,119.285
C,7,3598137,vowelstep1.wav,None,1000,14,3718148,190,121.285
C,7,3598137,vowelstep1.wav,None,1000,14,3720150,200,123.285
C,7,3598137,sinestep3.wav,None,1000,14,3722151,199,125.285
C,7,3598137,silence.wav,None,1000,14,3724153,201,127.285
C,7,3598137,silence.wav,None,1000,14,3726155,200,129.285
C,7,3598137,vowelstep5_catch.wav,2,188,14,3728156,191,131.285
C,7,3598137,vowelstep5.wav,None,1000,14,3730158,1002,133.285
C,7,3598137,silence.wav,None,1000,14,3732144,189,135.285
C,7,3598137,sinestep1.wav,None,1000,14,3734145,190,137.285
C,7,3598137,vowelstep7.wav,None,1000,14,3736147,199,139.285
C,7,3598137,sinestep7.wav,None,1000,14,3738148,199,141.285
C,7,3598137,silence.wav,None,1000,14,3740150,209,143.285
C,7,3598137,silence.wav,None,1000,14,3742151,189,145.285
C,7,3598137,sinestep7.wav,None,1000,14,3744153,190,147.285
C,7,3598137,vowelstep1.wav,None,1000,14,3746155,189,149.285
C,7,3598137,vowelstep5.wav,None,1000,14,3748156,199,151.285
C,7,3598137,vowelstep5.wav,None,1000,14,3750142,169,153.285
C,7,3598137,vowelstep7.wav,None,1000,14,3752144,199,155.285
C,7,3598137,sinestep7.wav,None,1000,14,3754145,199,157.285
C,7,3598137,vowelstep1.wav,None,1000,14,3756147,208,159.285
C,7,3598137,vowelstep3.wav,None,1000,14,3758148,187,161.285
C,7,3598137,sinestep5.wav,None,1000,14,3760150,188,163.285
C,7,3598137,sinestep7.wav,None,1000,14,3762151,188,165.285
C,7,3598137,sinestep1.wav,None,1000,14,3764153,199,167.285
C,7,3598137,sinestep7.wav,None,1000,14,3766154,198,169.285
C,7,3598137,sinestep3.wav,None,1000,14,3768157,208,171.285
C,7,3598137,silence.wav,None,1000,14,3770142,207,173.285
C,7,3598137,vowelstep7.wav,None,1000,14,3772143,207,175.285
C,7,3598137,sinestep7.wav,None,1000,14,3774145,207,177.285
C,7,3598137,sinestep5.wav,None,1000,14,3776147,187,179.285
C,7,3598137,vowelstep7.wav,None,1000,14,3778148,197,181.285
C,7,3598137,vowelstep5.wav,None,1000,14,3780150,198,183.285
C,7,3598137,vowelstep3.wav,None,1000,14,3782151,207,185.285
C,7,3598137,vowelstep7_catch.wav,2,129,14,3784153,177,187.285
C,7,3598137,vowelstep3.wav,None,1000,14,3786155,1058,189.285
C,7,3598137,vowelstep5.wav,None,1000,14,3788157,186,191.285
C,7,3598137,vowelstep7.wav,None,1000,14,3790142,196,193.285
C,7,3598137,vowelstep7_catch.wav,2,264,14,3792143,196,195.285
C,7,3598137,vowelstep5_catch.wav,2,480,14,3794145,931,197.285
C,7,3598137,sinestep5.wav,None,1000,14,3796147,715,199.285
C,7,3598137,sinestep3.wav,None,1000,14,3798148,206,201.285
C,7,3598137,vowelstep3_catch.wav,2,185,14,3800150,206,203.285
C,7,3598137,vowelstep1_catch.wav,2,304,14,3802152,1000,205.285
C,7,3598137,vowelstep5.wav,None,1000,14,3804154,881,207.285
C,7,3598137,vowelstep1.wav,None,1000,14,3806155,195,209.285
C,7,3598137,sinestep1_catch.wav,2,145,14,3808157,195,211.285
C,7,3598137,sinestep3_catch.wav,2,186,14,3810142,1049,213.285
C,7,3598137,sinestep1.wav,None,1000,14,3812143,1018,215.285
C,7,3598137,vowelstep3.wav,None,1000,14,3814145,205,217.285
C,7,3598137,sinestep3.wav,None,1000,14,3816147,205,219.285
C,7,3598137,vowelstep5.wav,None,1000,14,3818148,186,221.285
C,7,3598137,sinestep7.wav,None,1000,14,3820151,194,223.285
C,7,3598137,sinestep1.wav,None,1000,14,3822152,194,225.285
C,7,3598137,sinestep5_catch.wav,2,91,14,3824154,194,227.285
C,7,3598137,vowelstep7.wav,None,1000,14,3826155,1091,229.285
C,7,3598137,vowelstep3.wav,None,1000,14,3828157,184,231.285
C,7,3598137,silence.wav,None,1000,14,3830142,183,233.285
C,7,3598137,vowelstep1.wav,None,1000,14,3832143,214,235.285
C,7,3598137,sinestep5.wav,None,1000,14,3834145,193,237.285
C,7,3598137,sinestep1.wav,None,1000,14,3836146,194,239.285
C,7,3598137,vowelstep7.wav,None,1000,14,3838149,193,241.285
C,7,3598137,sinestep3.wav,None,1000,14,3840151,203,243.285
C,7,3598137,sinestep3.wav,None,1000,14,3842152,183,245.285
C,7,3598137,sinestep5.wav,None,1000,14,3844154,183,247.285
C,7,3598137,vowelstep3.wav,None,1000,14,3846155,182,249.285
C,7,3598137,sinestep3.wav,None,1000,14,3848157,193,251.285
C,7,3598137,silence.wav,None,1000,14,3850142,192,253.285
C,7,3598137,sinestep3.wav,None,1000,14,3852143,192,255.285
C,7,3598137,vowelstep1.wav,None,1000,14,3854145,202,257.285
C,7,3598137,silence.wav,None,1000,14,3856147,201,259.285
C,7,3598137,vowelstep1.wav,None,1000,14,3858149,201,261.285
C,7,3598137,silence.wav,None,1000,14,3860151,211,263.285
C,7,3598137,sinestep7.wav,None,1000,14,3862152,192,265.285
C,7,3598137,sinestep3.wav,None,1000,14,3864154,191,267.285
C,7,3598137,vowelstep1.wav,None,1000,14,3866155,191,269.285
C,7,3598137,sinestep7.wav,None,1000,14,3868157,192,271.285
C,7,3598137,sinestep7_catch.wav,2,278,14,3870142,181,273.285
C,7,3598137,vowelstep5.wav,None,1000,14,3872144,922,275.285
C,7,3598137,silence.wav,None,1000,14,3874146,211,277.285
C,7,3598137,silence.wav,None,1000,14,3876147,180,279.285
C,7,3598137,sinestep3.wav,None,1000,14,3878149,190,281.285
C,7,3598137,vowelstep7.wav,None,1000,14,3880151,190,283.285
C,7,3598137,sinestep5.wav,None,1000,14,3882152,201,285.285
C,7,3598137,sinestep5.wav,None,1000,14,3884154,200,287.285
C,7,3598137,vowelstep3.wav,None,1000,14,3886155,180,289.285
C,7,3598137,sinestep3.wav,None,1000,14,3888157,181,291.285
C,7,3598137,silence.wav,None,1000,14,3890143,190,293.285
C,7,3598137,silence.wav,None,1000,14,3892144,209,295.285
C,7,3598137,vowelstep7.wav,None,1000,14,3894146,218,297.285
C,7,3598137,silence.wav,None,1000,14,3896147,189,299.285
C,7,3598137,vowelstep5.wav,None,1000,14,3898149,199,301.285
C,7,3598137,sinestep5.wav,None,1000,14,3900150,199,303.285
C,7,3598137,silence.wav,None,1000,14,3902152,209,305.285
C,7,3598137,silence.wav,None,1000,14,3904154,179,307.285
C,7,3598137,silence.wav,None,1000,14,3906155,189,309.285
C,7,3598137,sinestep7_catch.wav,2,206,14,3908158,190,311.285
C,7,3598137,sinestep7.wav,None,1000,14,3910143,991,313.285
C,7,3598137,sinestep5_catch.wav,2,239,14,3912144,198,315.285
C,7,3598137,sinestep5.wav,None,1000,14,3914146,958,317.285
C,7,3598137,sinestep3_catch.wav,2,81,14,3916147,197,319.285
B,8,3976756,vowelstep5.wav,None,1000,14,3976765,0,1.285
B,8,3976756,silence.wav,None,1000,14,3978767,202,3.285
B,8,3976756,sinestep7.wav,None,1000,14,3980869,-98,5.285
B,8,3976756,vowelstep1_catch.wav,2,155,14,3982770,93,7.285
B,8,3976756,vowelstep7.wav,None,1000,14,3984772,1027,9.285
B,8,3976756,vowelstep3.wav,None,1000,14,3986773,182,11.285
B,8,3976756,vowelstep7.wav,None,1000,14,3988775,192,13.285
B,8,3976756,vowelstep5.wav,None,1000,14,3990776,192,15.285
B,8,3976756,vowelstep7.wav,None,1000,14,3992761,192,17.285
B,8,3976756,vowelstep3.wav,None,1000,14,3994764,202,19.285
B,8,3976756,silence.wav,None,1000,14,3996765,201,21.285
B,8,3976756,silence.wav,None,1000,14,3998767,211,23.285
B,8,3976756,sinestep5.wav,None,1000,14,4000768,182,25.285
B,8,3976756,sinestep1.wav,None,1000,14,4002770,192,27.285
B,8,3976756,vowelstep7.wav,None,1000,14,4004772,191,29.285
B,8,3976756,sinestep5.wav,None,1000,14,4006773,201,31.285
B,8,3976756,vowelstep1.wav,None,1000,14,4008775,172,33.285
B,8,3976756,vowelstep7.wav,None,1000,14,4010776,181,35.285
B,8,3976756,vowelstep3.wav,None,1000,14,4012762,181,37.285
B,8,3976756,sinestep5.wav,None,1000,14,4014764,188,39.285
B,8,3976756,vowelstep1.wav,None,1000,14,4016765,182,41.285
B,8,3976756,sinestep3.wav,None,1000,14,4018767,188,43.285
B,8,3976756,vowelstep5.wav,None,1000,14,4020768,189,45.285
B,8,3976756,vowelstep7.wav,None,1000,14,4022770,197,47.285
B,8,3976756,vowelstep3.wav,None,1000,14,4024772,199,49.285
B,8,3976756,sinestep7.wav,None,1000,14,4026773,180,51.285
B,8,3976756,sinestep3.wav,None,1000,14,4028775,175,53.285
B,8,3976756,sinestep1.wav,None,1000,14,4030777,188,55.285
B,8,3976756,sinestep1.wav,None,1000,14,4032762,189,57.285
B,8,3976756,sinestep5.wav,None,1000,14,4034764,198,59.285
B,8,3976756,vowelstep5.wav,None,1000,14,4036765,198,61.285
B,8,3976756,vowelstep3_catch.wav,2,163,14,4038767,197,63.285
B,8,3976756,vowelstep7.wav,None,1000,14,4040768,1033,65.285
B,8,3976756,sinestep1.wav,None,1000,14,4042770,207,67.285
B,8,3976756,vowelstep5.wav,None,1000,14,4044771,187,69.285
B,8,3976756,vowelstep5_catch.wav,2,422,14,4046774,188,71.285
B,8,3976756,vowelstep7.wav,None,1000,14,4048776,760,73.285
B,8,3976756,sinestep3.wav,None,1000,14,4050777,167,75.285
B,8,3976756,vowelstep7_catch.wav,2,299,14,4052762,176,77.285
B,8,3976756,sinestep5.wav,None,1000,14,4054764,898,79.285
B,8,3976756,vowelstep5.wav,None,1000,14,4056765,207,81.285
B,8,3976756,silence.wav,None,1000,14,4058767,186,83.285
B,8,3976756,silence.wav,None,1000,14,4060768,186,85.285
B,8,3976756,vowelstep3.wav,None,1000,14,4062770,187,87.285
B,8,3976756,silence.wav,None,1000,14,4064772,187,89.285
B,8,3976756,sinestep1.wav,None,1000,14,4066774,196,91.285
B,8,3976756,sinestep1.wav,None,1000,14,4068776,195,93.285
B,8,3976756,sinestep5.wav,None,1000,14,4070777,175,95.285
B,8,3976756,vowelstep7.wav,None,1000,14,4072762,185,97.285
B,8,3976756,sinestep5.wav,None,1000,14,4074764,206,99.285
B,8,3976756,sinestep5.wav,None,1000,14,4076765,186,101.285
B,8,3976756,silence.wav,None,1000,14,4078767,196,103.285
B,8,3976756,vowelstep1.wav,None,1000,14,4080768,196,105.285
B,8,3976756,silence.wav,None,1000,14,4082771,196,107.285
B,8,3976756,sinestep1.wav,None,1000,14,4084772,195,109.285
B,8,3976756,vowelstep7.wav,None,1000,14,4086774,185,111.285
B,8,3976756,silence.wav,None,1000,14,4088776,185,113.285
B,8,3976756,sinestep1.wav,None,1000,14,4090777,185,115.285
B,8,3976756,vowelstep3.wav,None,1000,14,4092762,185,117.285
B,8,3976756,vowelstep5.wav,None,1000,14,4094764,196,119.285
B,8,3976756,silence.wav,None,1000,14,4096765,195,121.285
B,8,3976756,sinestep3.wav,None,1000,14,4098767,205,123.285
B,8,3976756,sinestep5.wav,None,1000,14,4100769,174,125.285
B,8,3976756,silence.wav,None,1000,14,4102771,183,127.285
B,8,3976756,vowelstep5.wav,None,1000,14,4104772,185,129.285
B,8,3976756,sinestep3.wav,None,1000,14,4106774,194,131.285
B,8,3976756,sinestep5.wav,None,1000,14,4108775,194,133.285
B,8,3976756,sinestep5.wav,None,1000,14,4110777,194,135.285
B,8,3976756,sinestep7.wav,None,1000,14,4112762,174,137.285
B,8,3976756,sinestep7.wav,None,1000,14,4114764,204,139.285
B,8,3976756,vowelstep5.wav,None,1000,14,4116766,203,141.285
B,8,3976756,sinestep1.wav,None,1000,14,4118768,212,143.285
B,8,3976756,vowelstep7.wav,None,1000,14,4120769,183,145.285
B,8,3976756,sinestep7.wav,None,1000,14,4122771,193,147.285
B,8,3976756,vowelstep5.wav,None,1000,14,4124772,192,149.285
B,8,3976756,vowelstep1.wav,None,1000,14,4126774,194,151.285
B,8,3976756,sinestep3.wav,None,1000,14,4128775,203,153.285
B,8,3976756,silence.wav,None,1000,14,4130777,184,155.285
B,8,3976756,silence.wav,None,1000,14,4132762,182,157.285
B,8,3976756,sinestep7_catch.wav,2,195,14,4134764,183,159.285
B,8,3976756,vowelstep5.wav,None,1000,14,4136766,995,161.285
B,8,3976756,sinestep7.wav,None,1000,14,4138768,192,163.285
B,8,3976756,vowelstep5.wav,None,1000,14,4140769,201,165.285
B,8,3976756,vowelstep3.wav,None,1000,14,4142771,202,167.285
B,8,3976756,silence.wav,None,1000,14,4144772,181,169.285
B,8,3976756,sinestep3.wav,None,1000,14,4146774,181,171.285
B,8,3976756,sinestep7_catch.wav,2,208,14,4148775,182,173.285
B,8,3976756,sinestep3.wav,None,1000,14,4150777,983,175.285
B,8,3976756,sinestep5_catch.wav,2,250,14,4152763,192,177.285
B,8,3976756,vowelstep5.wav,None,1000,14,4154764,940,179.285
B,8,3976756,silence.wav,None,1000,14,4156766,200,181.285
B,8,3976756,sinestep7.wav,None,1000,14,4158768,201,183.285
B,8,3976756,silence.wav,None,1000,14,4160769,201,185.285
B,8,3976756,sinestep3.wav,None,1000,14,4162771,181,187.285
B,8,3976756,silence.wav,None,1000,14,4164772,191,189.285
B,8,3976756,vowelstep7.wav,None,1000,14,4166774,190,191.285
B,8,3976756,vowelstep3.wav,None,1000,14,4168775,201,193.285
B,8,3976756,vowelstep3.wav,None,1000,14,4170761,169,195.285
B,8,3976756,sinestep7.wav,None,1000,14,4172763,199,197.285
B,8,3976756,sinestep7.wav,None,1000,14,4174764,200,199.285
B,8,3976756,sinestep3.wav,None,1000,14,4176766,209,201.285
B,8,3976756,sinestep3_catch.wav,2,897,14,4178768,190,203.285
B,8,3976756,sinestep1.wav,None,1000,14,4180769,292,205.285
B,8,3976756,sinestep1.wav,None,1000,14,4182771,190,207.285
B,8,3976756,sinestep3.wav,None,1000,14,4184772,199,209.285
B,8,3976756,silence.wav,None,1000,14,4186775,178,211.285
B,8,3976756,silence.wav,None,1000,14,4188776,179,213.285
B,8,3976756,sinestep5_catch.wav,2,153,14,4190761,177,215.285
B,8,3976756,sinestep7.wav,None,1000,14,4192763,1055,217.285
B,8,3976756,sinestep7.wav,None,1000,14,4194764,189,219.285
B,8,3976756,vowelstep3.wav,None,1000,14,4196766,190,221.285
B,8,3976756,sinestep1_catch.wav,2,300,14,4198767,200,223.285
B,8,3976756,vowelstep5.wav,None,1000,14,4200769,898,225.285
B,8,3976756,sinestep1.wav,None,1000,14,4202771,198,227.285
B,8,3976756,vowelstep1.wav,None,1000,14,4204773,179,229.285
B,8,3976756,vowelstep1.wav,None,1000,14,4206775,188,231.285
B,8,3976756,sinestep5.wav,None,1000,14,4208776,187,233.285
B,8,3976756,silence.wav,None,1000,14,4210761,188,235.285
B,8,3976756,silence.wav,None,1000,14,4212763,198,237.285
B,8,3976756,vowelstep1.wav,None,1000,14,4214764,198,239.285
B,8,3976756,vowelstep1.wav,None,1000,14,4216766,197,241.285
B,8,3976756,silence.wav,None,1000,14,4218767,198,243.285
B,8,3976756,vowelstep1_catch.wav,2,177,14,4220769,188,245.285
B,8,3976756,sinestep7.wav,None,1000,14,4222772,1009,247.285
B,8,3976756,sinestep1.wav,None,1000,14,4224773,186,249.285
B,8,3976756,vowelstep1.wav,None,1000,14,4226775,187,251.285
B,8,3976756,vowelstep3.wav,None,1000,14,4228776,176,253.285
B,8,3976756,sinestep3.wav,None,1000,14,4230761,176,255.285
B,8,3976756,silence.wav,None,1000,14,4232763,206,257.285
B,8,3976756,vowelstep3.wav,None,1000,14,4234764,206,259.285
B,8,3976756,silence.wav,None,1000,14,4236766,186,261.285
B,8,3976756,vowelstep3.wav,None,1000,14,4238767,187,263.285
B,8,3976756,sinestep5.wav,None,1000,14,4240770,195,265.285
B,8,3976756,vowelstep3_catch.wav,2,137,14,4242772,195,267.285
B,8,3976756,sinestep3.wav,None,1000,14,4244773,1057,269.285
B,8,3976756,sinestep1.wav,None,1000,14,4246775,196,271.285
B,8,3976756,vowelstep3.wav,None,1000,14,4248776,185,273.285
B,8,3976756,vowelstep1.wav,None,1000,14,4250761,185,275.285
B,8,3976756,vowelstep5_catch.wav,2,327,14,4252763,205,277.285
B,8,3976756,vowelstep1.wav,None,1000,14,4254764,858,279.285
B,8,3976756,vowelstep5.wav,None,1000,14,4256767,194,281.285
B,8,3976756,sinestep7.wav,None,1000,14,4258768,194,283.285
B,8,3976756,vowelstep7.wav,None,1000,14,4260770,195,285.285
B,8,3976756,vowelstep1_catch.wav,2,683,14,4262771,205,287.285
B,8,3976756,sinestep1.wav,None,1000,14,4264773,500,289.285
B,8,3976756,vowelstep1.wav,None,1000,14,4266775,185,291.285
B,8,3976756,sinestep5.wav,None,1000,14,4268776,194,293.285
B,8,3976756,vowelstep7.wav,None,1000,14,4270761,194,295.285
B,8,3976756,sinestep7.wav,None,1000,14,4272763,194,297.285
B,8,3976756,vowelstep7_catch.wav,2,242,14,4274765,194,299.285
B,8,3976756,sinestep3.wav,None,1000,14,4276767,960,301.285
B,8,3976756,vowelstep3.wav,None,1000,14,4278768,183,303.285
B,8,3976756,sinestep5.wav,None,1000,14,4280770,182,305.285
B,8,3976756,vowelstep1.wav,None,1000,14,4282771,183,307.285
B,8,3976756,vowelstep7.wav,None,1000,14,4284773,193,309.285
B,8,3976756,vowelstep1.wav,None,1000,14,4286775,193,311.285
B,8,3976756,sinestep7.wav,None,1000,14,4288776,193,313.285
B,8,3976756,sinestep3.wav,None,1000,14,4290761,203,315.285
B,8,3976756,silence.wav,None,1000,14,4292764,203,317.285
B,8,3976756,vowelstep1.wav,None,1000,14,4294765,201,319.285
E,9,4357768,vowelstep7.wav,None,1000,14,4357784,0,1.285
E,9,4357768,sinestep3.wav,None,1000,14,4359786,181,3.285
E,9,4357768,sinestep5.wav,None,1000,14,4361788,180,5.285
E,9,4357768,sinestep1.wav,None,1000,14,4363773,180,7.285
E,9,4357768,sinestep5.wav,None,1000,14,4365775,191,9.285
E,9,4357768,silence.wav,None,1000,14,4367776,191,11.285
E,9,4357768,vowelstep1.wav,None,1000,14,4369778,199,13.285
E,9,4357768,vowelstep7.wav,None,1000,14,4371779,200,15.285
E,9,4357768,vowelstep1.wav,None,1000,14,4373781,200,17.285
E,9,4357768,sinestep1_catch.wav,2,173,14,4375782,210,19.285
E,9,4357768,vowelstep5.wav,None,1000,14,4377784,1017,21.285
E,9,4357768,sinestep5.wav,None,1000,14,4379787,190,23.285
E,9,4357768,vowelstep5.wav,None,1000,14,4381788,189,25.285
E,9,4357768,vowelstep3.wav,None,1000,14,4383773,199,27.285
E,9,4357768,sinestep1.wav,None,1000,14,4385775,199,29.285
E,9,4357768,vowelstep5.wav,None,1000,14,4387776,200,31.285
E,9,4357768,silence.wav,None,1000,14,4389778,209,33.285
E,9,4357768,silence.wav,None,1000,14,4391779,179,35.285
E,9,4357768,sinestep3.wav,None,1000,14,4393781,188,37.285
E,9,4357768,sinestep3.wav,None,1000,14,4395782,190,39.285
E,9,4357768,sinestep3.wav,None,1000,14,4397785,198,41.285
E,9,4357768,sinestep1.wav,None,1000,14,4399787,168,43.285
E,9,4357768,vowelstep1.wav,None,1000,14,4401788,178,45.285
E,9,4357768,sinestep1.wav,None,1000,14,4403790,177,47.285
E,9,4357768,vowelstep7.wav,None,1000,14,4405775,178,49.285
E,9,4357768,vowelstep5.wav,None,1000,14,4407776,188,51.285
E,9,4357768,sinestep7.wav,None,1000,14,4409778,187,53.285
E,9,4357768,sinestep1.wav,None,1000,14,4411779,198,55.285
E,9,4357768,vowelstep5.wav,None,1000,14,4413782,197,57.285
E,9,4357768,sinestep3.wav,None,1000,14,4415783,197,59.285
E,9,4357768,vowelstep1.wav,None,1000,14,4417785,207,61.285
E,9,4357768,vowelstep5.wav,None,1000,14,4419786,177,63.285
E,9,4357768,vowelstep3.wav,None,1000,14,4421788,186,65.285
E,9,4357768,sinestep1.wav,None,1000,14,4423790,187,67.285
E,9,4357768,vowelstep3.wav,None,1000,14,4425774,197,69.285
E,9,4357768,silence.wav,None,1000,14,4427776,197,71.285
E,9,4357768,vowelstep3.wav,None,1000,14,4429778,196,73.285
E,9,4357768,sinestep3_catch.wav,2,405,14,4431780,196,75.285
E,9,4357768,sinestep3.wav,None,1000,14,4433782,770,77.285
E,9,4357768,vowelstep3.wav,None,1000,14,4435783,186,79.285
E,9,4357768,vowelstep7.wav,None,1000,14,4437785,185,81.285
E,9,4357768,silence.wav,None,1000,14,4439786,186,83.285
E,9,4357768,sinestep3.wav,None,1000,14,4441788,196,85.285
E,9,4357768,silence.wav,None,1000,14,4443790,176,87.285
E,9,4357768,sinestep1.wav,None,1000,14,4445774,175,89.285
E,9,4357768,sinestep5_catch.wav,2,119,14,4447776,206,91.285
E,9,4357768,vowelstep3.wav,None,1000,14,4449779,1065,93.285
E,9,4357768,sinestep5.wav,None,1000,14,4451780,185,95.285
E,9,4357768,vowelstep7.wav,None,1000,14,4453782,184,97.285
E,9,4357768,sinestep1.wav,None,1000,14,4455783,184,99.285
E,9,4357768,sinestep5.wav,None,1000,14,4457785,195,101.285
E,9,4357768,sinestep5.wav,None,1000,14,4459786,194,103.285
E,9,4357768,vowelstep7.wav,None,1000,14,4461788,174,105.285
E,9,4357768,vowelstep3.wav,None,1000,14,4463790,184,107.285
E,9,4357768,vowelstep7.wav,None,1000,14,4465774,183,109.285
E,9,4357768,sinestep5.wav,None,1000,14,4467777,213,111.285
E,9,4357768,vowelstep3.wav,None,1000,14,4469779,193,113.285
E,9,4357768,vowelstep7.wav,None,1000,14,4471780,183,115.285
E,9,4357768,sinestep3.wav,None,1000,14,4473782,190,117.285
E,9,4357768,vowelstep7.wav,None,1000,14,4475783,201,119.285
E,9,4357768,silence.wav,None,1000,14,4477785,182,121.285
E,9,4357768,silence.wav,None,1000,14,4479786,180,123.285
E,9,4357768,sinestep7.wav,None,1000,14,4481788,180,125.285
E,9,4357768,sinestep7_catch.wav,2,84,14,4483774,191,127.285
E,9,4357768,sinestep7.wav,None,1000,14,4485775,1109,129.285
E,9,4357768,silence.wav,None,1000,14,4487777,196,131.285
E,9,4357768,sinestep7_catch.wav,2,95,14,4489778,205,133.285
E,9,4357768,sinestep7.wav,None,1000,14,4491780,1090,135.285
E,9,4357768,sinestep5_catch.wav,2,131,14,4493782,186,137.285
E,9,4357768,sinestep1.wav,None,1000,14,4495783,1054,139.285
E,9,4357768,sinestep1.wav,None,1000,14,4497785,195,141.285
E,9,4357768,sinestep1.wav,None,1000,14,4499786,196,143.285
E,9,4357768,sinestep3.wav,None,1000,14,4501772,195,145.285
E,9,4357768,vowelstep5.wav,None,1000,14,4503774,205,147.285
E,9,4357768,silence.wav,None,1000,14,4505775,205,149.285
E,9,4357768,sinestep3_catch.wav,2,101,14,4507777,204,151.285
E,9,4357768,silence.wav,None,1000,14,4509778,1110,153.285
E,9,4357768,sinestep7.wav,None,1000,14,4511780,185,155.285
E,9,4357768,sinestep5.wav,None,1000,14,4513782,194,157.285
E,9,4357768,silence.wav,None,1000,14,4515783,194,159.285
E,9,4357768,vowelstep5.wav,None,1000,14,4517785,194,161.285
E,9,4357768,vowelstep1.wav,None,1000,14,4519787,184,163.285
E,9,4357768,vowelstep3.wav,None,1000,14,4521789,181,165.285
E,9,4357768,sinestep5.wav,None,1000,14,4523774,180,167.285
E,9,4357768,sinestep7.wav,None,1000,14,4525775,183,169.285
E,9,4357768,vowelstep1.wav,None,1000,14,4527777,189,171.285
E,9,4357768,vowelstep7.wav,None,1000,14,4529778,193,173.285
E,9,4357768,sinestep3.wav,None,1000,14,4531780,199,175.285
E,9,4357768,silence.wav,None,1000,14,4533782,202,177.285
E,9,4357768,sinestep1_catch.wav,2,164,14,4535783,185,179.285
E,9,4357768,sinestep7.wav,None,1000,14,4537786,1021,181.285
E,9,4357768,vowelstep1.wav,None,1000,14,4539787,193,183.285
E,9,4357768,sinestep5.wav,None,1000,14,4541789,195,185.285
E,9,4357768,sinestep5.wav,None,1000,14,4543774,194,187.285
E,9,4357768,vowelstep1.wav,None,1000,14,4545775,195,189.285
E,9,4357768,sinestep7.wav,None,1000,14,4547777,204,191.285
E,9,4357768,sinestep3.wav,None,1000,14,4549778,205,193.285
E,9,4357768,sinestep7.wav,None,1000,14,4551780,215,195.285
E,9,4357768,silence.wav,None,1000,14,4553782,185,197.285
E,9,4357768,vowelstep1.wav,None,1000,14,4555784,194,199.285
E,9,4357768,sinestep1.wav,None,1000,14,4557786,190,201.285
E,9,4357768,vowelstep1.wav,None,1000,14,4559787,204,203.285
E,9,4357768,vowelstep1.wav,None,1000,14,4561789,173,205.285
E,9,4357768,vowelstep1_catch.wav,2,98,14,4563774,181,207.285
E,9,4357768,vowelstep1.wav,None,1000,14,4565775,1105,209.285
E,9,4357768,vowelstep1.wav,None,1000,14,4567777,211,211.285
E,9,4357768,silence.wav,None,1000,14,4569778,193,213.285
E,9,4357768,sinestep7.wav,None,1000,14,4571781,191,215.285
E,9,4357768,vowelstep7.wav,None,1000,14,4573782,192,217.285
E,9,4357768,vowelstep3_catch.wav,2,107,14,4575784,202,219.285
E,9,4357768,vowelstep5.wav,None,1000,14,4577786,1074,221.285
E,9,4357768,sinestep3.wav,None,1000,14,4579787,181,223.285
E,9,4357768,silence.wav,None,1000,14,4581789,182,225.285
E,9,4357768,sinestep1.wav,None,1000,14,4583774,189,227.285
E,9,4357768,sinestep5.wav,None,1000,14,4585775,193,229.285
E,9,4357768,sinestep5.wav,None,1000,14,4587777,191,231.285
E,9,4357768,sinestep3.wav,None,1000,14,4589779,203,233.285
E,9,4357768,sinestep5.wav,None,1000,14,4591781,198,235.285
E,9,4357768,vowelstep3.wav,None,1000,14,4593782,201,237.285
E,9,4357768,sinestep7.wav,None,1000,14,4595784,177,239.285
E,9,4357768,sinestep7.wav,None,1000,14,4597786,191,241.285
E,9,4357768,silence.wav,None,1000,14,4599787,187,243.285
E,9,4357768,sinestep3.wav,None,1000,14,4601789,192,245.285
E,9,4357768,sinestep3.wav,None,1000,14,4603774,197,247.285
E,9,4357768,vowelstep3.wav,None,1000,14,4605775,202,249.285
E,9,4357768,silence.wav,None,1000,14,4607778,201,251.285
E,9,4357768,sinestep7.wav,None,1000,14,4609779,199,253.285
E,9,4357768,silence.wav,None,1000,14,4611781,187,255.285
E,9,4357768,vowelstep7.wav,None,1000,14,4613782,190,257.285
E,9,4357768,vowelstep3.wav,None,1000,14,4615784,189,259.285
E,9,4357768,silence.wav,None,1000,14,4617785,191,261.285
E,9,4357768,vowelstep3.wav,None,1000,14,4619787,177,263.285
E,9,4357768,vowelstep1.wav,None,1000,14,4621789,181,265.285
E,9,4357768,vowelstep5.wav,None,1000,14,4623774,178,267.285
E,9,4357768,silence.wav,None,1000,14,4625776,208,269.285
E,9,4357768,vowelstep3.wav,None,1000,14,4627778,206,271.285
E,9,4357768,sinestep1.wav,None,1000,14,4629779,189,273.285
E,9,4357768,vowelstep5_catch.wav,2,173,14,4631781,187,275.285
E,9,4357768,sinestep7.wav,None,1000,14,4633782,1025,277.285
E,9,4357768,sinestep7.wav,None,1000,14,4635784,197,279.285
E,9,4357768,vowelstep7.wav,None,1000,14,4637785,200,281.285
E,9,4357768,silence.wav,None,1000,14,4639787,186,283.285
E,9,4357768,sinestep5.wav,None,1000,14,4641773,189,285.285
E,9,4357768,silence.wav,None,1000,14,4643774,213,287.285
E,9,4357768,silence.wav,None,1000,14,4645776,188,289.285
E,9,4357768,vowelstep5.wav,None,1000,14,4647778,197,291.285
E,9,4357768,vowelstep5.wav,None,1000,14,4649779,196,293.285
E,9,4357768,silence.wav,None,1000,14,4651781,204,295.285
E,9,4357768,vowelstep5.wav,None,1000,14,4653782,188,297.285
E,9,4357768,vowelstep7_catch.wav,2,226,14,4655784,187,299.285
E,9,4357768,vowelstep7_catch.wav,2,428,14,4657785,961,301.285
E,9,4357768,vowelstep5.wav,None,1000,14,4659788,770,303.285
E,9,4357768,sinestep1.wav,None,1000,14,4661773,197,305.285
E,9,4357768,vowelstep3.wav,None,1000,14,4663774,194,307.285
E,9,4357768,vowelstep5_catch.wav,2,340,14,4665776,207,309.285
E,9,4357768,vowelstep7.wav,None,1000,14,4667778,864,311.285
E,9,4357768,vowelstep5.wav,None,1000,14,4669779,207,313.285
E,9,4357768,vowelstep7.wav,None,1000,14,4671781,187,315.285
E,9,4357768,vowelstep1.wav,None,1000,14,4673782,187,317.285
E,9,4357768,vowelstep3_catch.wav,2,80,14,4675784,197,319.285