block,count_main_sequence,first_trial_timestamp,fname,response_catch_response,response_time_catch_response,subject_nr,time_stimulus,time_to_pad,timing
P,NA,218774,vowelstep1_catch.wav,1,400,21,218786,0,
P,NA,218774,sinestep7_catch.wav,1,209,21,220786,1041,
P,NA,218774,vowelstep5_catch.wav,1,380,21,222786,1236,
P,NA,218774,sinestep7.wav,None,1000,21,224786,1065,
P,NA,218774,sinestep7.wav,None,1000,21,226786,456,
P,NA,218774,sinestep3.wav,None,1000,21,228787,435,
P,NA,218774,sinestep1.wav,None,1000,21,230787,435,
P,NA,218774,vowelstep7.wav,None,1000,21,232787,435,
P,NA,218774,vowelstep3.wav,None,1000,21,234787,447,
P,NA,218774,silence.wav,None,1000,21,236787,445,
P,NA,218774,sinestep1.wav,None,1000,21,238787,445,
P,NA,218774,vowelstep1.wav,None,1000,21,240786,425,
P,NA,218774,sinestep5.wav,None,1000,21,242786,435,
P,NA,218774,sinestep1.wav,None,1000,21,244787,434,
P,NA,218774,sinestep1.wav,None,1000,21,246787,434,
P,NA,218774,vowelstep1.wav,None,1000,21,248787,444,
P,NA,218774,silence.wav,None,1000,21,250787,444,
P,NA,218774,silence.wav,None,1000,21,252787,444,
P,NA,218774,silence.wav,None,1000,21,254787,425,
P,NA,218774,sinestep3_catch.wav,1,303,21,256787,434,
P,NA,218774,vowelstep7.wav,None,1000,21,258787,1131,
P,NA,218774,silence.wav,None,1000,21,260787,434,
P,NA,218774,vowelstep7.wav,None,1000,21,262788,444,
P,NA,218774,vowelstep3.wav,None,1000,21,264787,443,
P,NA,218774,silence.wav,None,1000,21,266787,444,
P,NA,218774,vowelstep1.wav,None,1000,21,268787,453,
P,NA,218774,sinestep3.wav,None,1000,21,270787,433,
P,NA,218774,vowelstep1.wav,None,1000,21,272787,433,
P,NA,218774,silence.wav,None,1000,21,274787,433,
P,NA,218774,sinestep7.wav,None,1000,21,276787,443,
P,NA,218774,sinestep5_catch.wav,1,387,21,278787,443,
P,NA,218774,silence.wav,None,1000,21,280788,1055,
P,NA,218774,sinestep7.wav,None,1000,21,282788,452,
P,NA,218774,sinestep5.wav,None,1000,21,284788,422,
P,NA,218774,sinestep3.wav,None,1000,21,286788,432,
P,NA,218774,sinestep1_catch.wav,1,224,21,288787,432,
P,NA,218774,vowelstep3_catch.wav,1,547,21,290787,1218,
P,NA,218774,vowelstep5_catch.wav,1,255,21,292787,895,
P,NA,218774,vowelstep7.wav,None,1000,21,294787,1186,
P,NA,218774,silence.wav,None,1000,21,296788,453,
P,NA,218774,vowelstep7_catch.wav,1,251,21,298788,451,
P,NA,218774,vowelstep3.wav,None,1000,21,300788,1180,
P,NA,218774,silence.wav,None,1000,21,302788,431,
P,NA,218774,sinestep7_catch.wav,1,331,21,304788,431,
P,NA,218774,sinestep7.wav,None,1000,21,306788,1109,
P,NA,218774,vowelstep5.wav,None,1000,21,308788,441,
P,NA,218774,vowelstep3.wav,None,1000,21,310788,451,
P,NA,218774,sinestep5.wav,None,1000,21,312788,421,
P,NA,218774,sinestep5_catch.wav,1,435,21,314788,430,
P,NA,218774,sinestep3.wav,None,1000,21,316788,994,
P,NA,218774,silence.wav,None,1000,21,318788,440,
P,NA,218774,vowelstep7.wav,None,1000,21,320788,440,
P,NA,218774,sinestep3_catch.wav,1,266,21,322788,440,
P,NA,218774,vowelstep5.wav,None,1000,21,324788,1175,
P,NA,218774,silence.wav,None,1000,21,326788,451,
P,NA,218774,sinestep1.wav,None,1000,21,328788,431,
P,NA,218774,vowelstep1.wav,None,1000,21,330788,430,
P,NA,218774,silence.wav,None,1000,21,332789,431,
P,NA,218774,silence.wav,None,1000,21,334789,439,
P,NA,218774,silence.wav,None,1000,21,336789,439,
P,NA,218774,sinestep1_catch.wav,1,132,21,338788,448,
P,NA,218774,sinestep1.wav,None,1000,21,340788,1317,
P,NA,218774,silence.wav,None,1000,21,342788,449,
P,NA,218774,vowelstep1_catch.wav,1,327,21,344788,448,
P,NA,218774,vowelstep5.wav,None,1000,21,346788,1101,
P,NA,218774,sinestep5.wav,None,1000,21,348788,439,
P,NA,218774,vowelstep3.wav,None,1000,21,350789,439,
P,NA,218774,silence.wav,None,1000,21,352789,438,
P,NA,218774,silence.wav,None,1000,21,354789,447,
P,NA,218774,sinestep7.wav,None,1000,21,356789,427,
P,NA,218774,vowelstep5.wav,None,1000,21,358789,428,
P,NA,218774,silence.wav,None,1000,21,360789,427,
P,NA,218774,vowelstep3_catch.wav,1,156,21,362788,437,
P,NA,218774,silence.wav,None,1000,21,364788,1281,
P,NA,218774,vowelstep5.wav,None,1000,21,366789,437,
P,NA,218774,vowelstep5_catch.wav,1,330,21,368789,447,
P,NA,218774,vowelstep7_catch.wav,1,237,21,370789,1116,
P,NA,218774,sinestep3.wav,None,1000,21,372789,1208,
P,NA,218774,vowelstep5.wav,None,1000,21,374789,456,
P,NA,218774,vowelstep3.wav,None,1000,21,376789,437,
P,NA,218774,silence.wav,None,1000,21,378789,437,
P,NA,218774,sinestep3.wav,None,1000,21,380789,437,
P,NA,218774,silence.wav,None,1000,21,382789,447,
P,NA,218774,sinestep7_catch.wav,1,368,21,384790,447,
P,NA,218774,sinestep5_catch.wav,1,151,21,386789,1077,
P,NA,218774,sinestep5.wav,None,1000,21,388789,1303,
P,NA,218774,sinestep5.wav,None,1000,21,390789,436,
P,NA,218774,vowelstep7.wav,None,1000,21,392789,436,
P,NA,218774,sinestep3_catch.wav,1,501,21,394789,435,
P,NA,218774,vowelstep1.wav,None,1000,21,396789,944,
H,0,798685,sinestep3.wav,None,1000,21,798696,0,1.285
H,0,798685,sinestep7.wav,None,1000,21,800696,327,3.285
H,0,798685,sinestep3.wav,None,1000,21,802695,332,5.285
H,0,798685,vowelstep3.wav,None,1000,21,804696,331,7.285
H,0,798685,vowelstep1.wav,None,1000,21,806696,342,9.285
H,0,798685,sinestep7.wav,None,1000,21,808696,341,11.285
H,0,798685,vowelstep3.wav,None,1000,21,810696,342,13.285
H,0,798685,silence.wav,None,1000,21,812696,321,15.285
H,0,798685,vowelstep1.wav,None,1000,21,814696,332,17.285
H,0,798685,sinestep5.wav,None,1000,21,816696,332,19.285
H,0,798685,sinestep7.wav,None,1000,21,818696,342,21.285
H,0,798685,vowelstep7.wav,None,1000,21,820696,342,23.285
H,0,798685,vowelstep1_catch.wav,1,275,21,822697,342,25.285
H,0,798685,sinestep5.wav,None,1000,21,824696,1065,27.285
H,0,798685,vowelstep5.wav,None,1000,21,826696,351,29.285
H,0,798685,silence.wav,None,1000,21,828696,351,31.285
H,0,798685,vowelstep3_catch.wav,1,205,21,830696,350,33.285
H,0,798685,sinestep7.wav,None,1000,21,832696,1156,35.285
H,0,798685,sinestep5.wav,None,1000,21,834696,341,37.285
H,0,798685,silence.wav,None,1000,21,836696,341,39.285
H,0,798685,vowelstep3.wav,None,1000,21,838696,340,41.285
H,0,798685,vowelstep1.wav,None,1000,21,840697,350,43.285
H,0,798685,vowelstep1.wav,None,1000,21,842697,350,45.285
H,0,798685,vowelstep3.wav,None,1000,21,844697,350,47.285
H,0,798685,sinestep3.wav,None,1000,21,846697,360,49.285
H,0,798685,vowelstep1.wav,None,1000,21,848697,340,51.285
H,0,798685,sinestep7.wav,None,1000,21,850696,340,53.285
H,0,798685,vowelstep7.wav,None,1000,21,852696,340,55.285
H,0,798685,vowelstep5_catch.wav,1,112,21,854696,350,57.285
H,0,798685,vowelstep5.wav,None,1000,21,856697,1237,59.285
H,0,798685,vowelstep3.wav,None,1000,21,858697,349,61.285
H,0,798685,vowelstep7_catch.wav,1,109,21,860697,349,63.285
H,0,798685,sinestep3.wav,None,1000,21,862697,1249,65.285
H,0,798685,sinestep1.wav,None,1000,21,864697,339,67.285
H,0,798685,sinestep7.wav,None,1000,21,866697,339,69.285
H,0,798685,silence.wav,None,1000,21,868697,339,71.285
H,0,798685,vowelstep1.wav,None,1000,21,870697,349,73.285
H,0,798685,vowelstep7.wav,None,1000,21,872697,349,75.285
H,0,798685,sinestep7.wav,None,1000,21,874697,359,77.285
H,0,798685,sinestep1.wav,None,1000,21,876697,328,79.285
H,0,798685,sinestep7.wav,None,1000,21,878697,338,81.285
H,0,798685,sinestep1.wav,None,1000,21,880697,338,83.285
H,0,798685,vowelstep5.wav,None,1000,21,882697,348,85.285
H,0,798685,sinestep3.wav,None,1000,21,884697,348,87.285
H,0,798685,vowelstep5.wav,None,1000,21,886697,348,89.285
H,0,798685,silence.wav,None,1000,21,888697,358,91.285
H,0,798685,silence.wav,None,1000,21,890697,358,93.285
H,0,798685,sinestep5.wav,None,1000,21,892698,338,95.285
H,0,798685,sinestep3.wav,None,1000,21,894698,338,97.285
H,0,798685,sinestep7.wav,None,1000,21,896698,347,99.285
H,0,798685,sinestep7_catch.wav,1,193,21,898697,346,101.285
H,0,798685,silence.wav,None,1000,21,900697,1154,103.285
H,0,798685,sinestep3.wav,None,1000,21,902697,357,105.285
H,0,798685,silence.wav,None,1000,21,904697,357,107.285
H,0,798685,vowelstep1.wav,None,1000,21,906697,337,109.285
H,0,798685,vowelstep7.wav,None,1000,21,908697,337,111.285
H,0,798685,sinestep5.wav,None,1000,21,910698,346,113.285
H,0,798685,silence.wav,None,1000,21,912698,346,115.285
H,0,798685,vowelstep7.wav,None,1000,21,914698,346,117.285
H,0,798685,vowelstep3.wav,None,1000,21,916698,346,119.285
H,0,798685,sinestep5.wav,None,1000,21,918698,356,121.285
H,0,798685,sinestep1.wav,None,1000,21,920698,336,123.285
H,0,798685,vowelstep3.wav,None,1000,21,922697,335,125.285
H,0,798685,vowelstep3.wav,None,1000,21,924697,336,127.285
H,0,798685,vowelstep5.wav,None,1000,21,926698,344,129.285
H,0,798685,vowelstep1.wav,None,1000,21,928698,346,131.285
H,0,798685,vowelstep7.wav,None,1000,21,930698,346,133.285
H,0,798685,vowelstep3.wav,None,1000,21,932698,356,135.285
H,0,798685,vowelstep5.wav,None,1000,21,934698,335,137.285
H,0,798685,vowelstep5.wav,None,1000,21,936698,334,139.285
H,0,798685,sinestep7.wav,None,1000,21,938698,334,141.285
H,0,798685,vowelstep1.wav,None,1000,21,940698,345,143.285
H,0,798685,sinestep3.wav,None,1000,21,942698,344,145.285
H,0,798685,sinestep1.wav,None,1000,21,944699,345,147.285
H,0,798685,vowelstep1.wav,None,1000,21,946698,323,149.285
H,0,798685,sinestep5_catch.wav,1,137,21,948698,333,151.285
H,0,798685,sinestep7.wav,None,1000,21,950698,1196,153.285
H,0,798685,sinestep3_catch.wav,1,148,21,952698,334,155.285
H,0,798685,sinestep7.wav,None,1000,21,954698,1195,157.285
H,0,798685,sinestep5.wav,None,1000,21,956698,345,159.285
H,0,798685,silence.wav,None,1000,21,958698,343,161.285
H,0,798685,sinestep1_catch.wav,1,177,21,960698,354,163.285
H,0,798685,vowelstep7.wav,None,1000,21,962699,1157,165.285
H,0,798685,vowelstep7.wav,None,1000,21,964699,332,167.285
H,0,798685,sinestep7.wav,None,1000,21,966699,332,169.285
H,0,798685,sinestep3.wav,None,1000,21,968699,343,171.285
H,0,798685,sinestep5.wav,None,1000,21,970699,343,173.285
H,0,798685,vowelstep1_catch.wav,1,128,21,972698,342,175.285
H,0,798685,vowelstep1.wav,None,1000,21,974698,1224,177.285
H,0,798685,sinestep3.wav,None,1000,21,976698,332,179.285
H,0,798685,sinestep3.wav,None,1000,21,978699,332,181.285
H,0,798685,vowelstep5.wav,None,1000,21,980699,331,183.285
H,0,798685,sinestep1.wav,None,1000,21,982699,341,185.285
H,0,798685,sinestep1.wav,None,1000,21,984699,341,187.285
H,0,798685,vowelstep7.wav,None,1000,21,986699,341,189.285
H,0,798685,sinestep1.wav,None,1000,21,988699,351,191.285
H,0,798685,sinestep5.wav,None,1000,21,990699,331,193.285
H,0,798685,vowelstep3_catch.wav,1,48,21,992699,331,195.285
H,0,798685,sinestep1.wav,None,1000,21,994699,1283,197.285
H,0,798685,silence.wav,None,1000,21,996699,332,199.285
H,0,798685,vowelstep1.wav,None,1000,21,998699,341,201.285
H,0,798685,vowelstep5_catch.wav,1,646,21,1000699,341,203.285
H,0,798685,sinestep5.wav,None,1000,21,1002699,692,205.285
H,0,798685,sinestep1.wav,None,1000,21,1004699,351,207.285
H,0,798685,silence.wav,None,1000,21,1006699,330,209.285
H,0,798685,sinestep3.wav,None,1000,21,1008699,330,211.285
H,0,798685,silence.wav,None,1000,21,1010699,330,213.285
H,0,798685,vowelstep7_catch.wav,1,252,21,1012699,340,215.285
H,0,798685,vowelstep5.wav,None,1000,21,1014700,1087,217.285
H,0,798685,sinestep7.wav,None,1000,21,1016700,339,219.285
H,0,798685,silence.wav,None,1000,21,1018700,319,221.285
H,0,798685,sinestep1.wav,None,1000,21,1020699,329,223.285
H,0,798685,silence.wav,None,1000,21,1022699,329,225.285
H,0,798685,silence.wav,None,1000,21,1024699,339,227.285
H,0,798685,silence.wav,None,1000,21,1026699,337,229.285
H,0,798685,silence.wav,None,1000,21,1028699,338,231.285
H,0,798685,sinestep5.wav,None,1000,21,1030699,339,233.285
H,0,798685,silence.wav,None,1000,21,1032700,328,235.285
H,0,798685,vowelstep3.wav,None,1000,21,1034700,327,237.285
H,0,798685,silence.wav,None,1000,21,1036700,329,239.285
H,0,798685,silence.wav,None,1000,21,1038700,328,241.285
H,0,798685,vowelstep1_catch.wav,1,272,21,1040700,338,243.285
H,0,798685,vowelstep5.wav,None,1000,21,1042700,1065,245.285
H,0,798685,vowelstep7.wav,None,1000,21,1044699,337,247.285
H,0,798685,vowelstep3_catch.wav,1,137,21,1046699,318,249.285
H,0,798685,vowelstep1.wav,None,1000,21,1048700,1189,251.285
H,0,798685,sinestep3.wav,None,1000,21,1050700,326,253.285
H,0,798685,vowelstep5_catch.wav,1,181,21,1052700,326,255.285
H,0,798685,vowelstep5.wav,None,1000,21,1054700,1154,257.285
H,0,798685,silence.wav,None,1000,21,1056700,336,259.285
H,0,798685,vowelstep7.wav,None,1000,21,1058700,337,261.285
H,0,798685,sinestep5.wav,None,1000,21,1060700,346,263.285
H,0,798685,vowelstep5.wav,None,1000,21,1062700,328,265.285
H,0,798685,vowelstep7.wav,None,1000,21,1064700,326,267.285
H,0,798685,vowelstep3.wav,None,1000,21,1066701,325,269.285
H,0,798685,vowelstep3.wav,None,1000,21,1068700,335,271.285
H,0,798685,silence.wav,None,1000,21,1070700,335,273.285
H,0,798685,vowelstep3.wav,None,1000,21,1072700,335,275.285
H,0,798685,sinestep1.wav,None,1000,21,1074700,344,277.285
H,0,798685,silence.wav,None,1000,21,1076700,344,279.285
H,0,798685,sinestep1.wav,None,1000,21,1078700,345,281.285
H,0,798685,vowelstep3.wav,None,1000,21,1080700,354,283.285
H,0,798685,silence.wav,None,1000,21,1082700,324,285.285
H,0,798685,vowelstep5.wav,None,1000,21,1084701,334,287.285
H,0,798685,vowelstep5.wav,None,1000,21,1086701,332,289.285
H,0,798685,vowelstep1.wav,None,1000,21,1088701,343,291.285
H,0,798685,sinestep5.wav,None,1000,21,1090701,342,293.285
H,0,798685,vowelstep7.wav,None,1000,21,1092701,342,295.285
H,0,798685,vowelstep1.wav,None,1000,21,1094700,343,297.285
H,0,798685,vowelstep7.wav,None,1000,21,1096700,333,299.285
H,0,798685,vowelstep3.wav,None,1000,21,1098700,333,301.285
H,0,798685,sinestep1.wav,None,1000,21,1100700,332,303.285
H,0,798685,sinestep5.wav,None,1000,21,1102701,340,305.285
H,0,798685,vowelstep5.wav,None,1000,21,1104701,341,307.285
H,0,798685,sinestep3.wav,None,1000,21,1106701,341,309.285
H,0,798685,vowelstep7.wav,None,1000,21,1108701,342,311.285
H,0,798685,sinestep7.wav,None,1000,21,1110701,321,313.285
H,0,798685,sinestep5.wav,None,1000,21,1112701,330,315.285
H,0,798685,sinestep3.wav,None,1000,21,1114701,330,317.285
H,0,798685,sinestep1.wav,None,1000,21,1116701,340,319.285
I,1,1176496,vowelstep7.wav,None,1000,21,1176502,0,1.285
I,1,1176496,sinestep1_catch.wav,1,345,21,1178502,337,3.285
I,1,1176496,sinestep3.wav,None,1000,21,1180502,991,5.285
I,1,1176496,silence.wav,None,1000,21,1182502,347,7.285
I,1,1176496,vowelstep7.wav,None,1000,21,1184502,345,9.285
I,1,1176496,sinestep3_catch.wav,1,302,21,1186502,346,11.285
I,1,1176496,vowelstep3.wav,None,1000,21,1188503,1044,13.285
I,1,1176496,vowelstep3.wav,None,1000,21,1190502,332,15.285
I,1,1176496,silence.wav,None,1000,21,1192502,334,17.285
I,1,1176496,vowelstep1.wav,None,1000,21,1194502,335,19.285
I,1,1176496,vowelstep5.wav,None,1000,21,1196502,335,21.285
I,1,1176496,vowelstep7.wav,None,1000,21,1198502,345,23.285
I,1,1176496,sinestep1.wav,None,1000,21,1200502,345,25.285
I,1,1176496,vowelstep1.wav,None,1000,21,1202502,355,27.285
I,1,1176496,sinestep5_catch.wav,1,158,21,1204502,354,29.285
I,1,1176496,sinestep5.wav,None,1000,21,1206503,1176,31.285
I,1,1176496,vowelstep1.wav,None,1000,21,1208503,333,33.285
I,1,1176496,sinestep7.wav,None,1000,21,1210503,334,35.285
I,1,1176496,vowelstep3.wav,None,1000,21,1212503,343,37.285
I,1,1176496,vowelstep1.wav,None,1000,21,1214502,343,39.285
I,1,1176496,vowelstep1.wav,None,1000,21,1216502,344,41.285
I,1,1176496,sinestep3.wav,None,1000,21,1218502,323,43.285
I,1,1176496,sinestep5.wav,None,1000,21,1220502,333,45.285
I,1,1176496,sinestep5.wav,None,1000,21,1222502,333,47.285
I,1,1176496,vowelstep3.wav,None,1000,21,1224503,334,49.285
I,1,1176496,silence.wav,None,1000,21,1226503,343,51.285
I,1,1176496,sinestep7_catch.wav,1,75,21,1228503,342,53.285
I,1,1176496,silence.wav,None,1000,21,1230503,1267,55.285
I,1,1176496,sinestep1.wav,None,1000,21,1232503,352,57.285
I,1,1176496,vowelstep1.wav,None,1000,21,1234503,332,59.285
I,1,1176496,sinestep1.wav,None,1000,21,1236503,333,61.285
I,1,1176496,sinestep1.wav,None,1000,21,1238503,332,63.285
I,1,1176496,vowelstep7.wav,None,1000,21,1240502,342,65.285
I,1,1176496,sinestep5.wav,None,1000,21,1242503,342,67.285
I,1,1176496,sinestep5_catch.wav,1,87,21,1244503,350,69.285
I,1,1176496,vowelstep7.wav,None,1000,21,1246503,1264,71.285
I,1,1176496,vowelstep5.wav,None,1000,21,1248503,331,73.285
I,1,1176496,sinestep3.wav,None,1000,21,1250503,331,75.285
I,1,1176496,vowelstep1.wav,None,1000,21,1252503,331,77.285
I,1,1176496,sinestep3.wav,None,1000,21,1254503,340,79.285
I,1,1176496,sinestep5.wav,None,1000,21,1256503,341,81.285
I,1,1176496,sinestep5.wav,None,1000,21,1258504,341,83.285
I,1,1176496,vowelstep5.wav,None,1000,21,1260504,349,85.285
I,1,1176496,vowelstep7.wav,None,1000,21,1262504,329,87.285
I,1,1176496,sinestep3.wav,None,1000,21,1264503,330,89.285
I,1,1176496,vowelstep3.wav,None,1000,21,1266503,329,91.285
I,1,1176496,sinestep3.wav,None,1000,21,1268503,339,93.285
I,1,1176496,vowelstep5.wav,None,1000,21,1270503,339,95.285
I,1,1176496,sinestep7.wav,None,1000,21,1272503,349,97.285
I,1,1176496,sinestep3_catch.wav,1,62,21,1274503,349,99.285
I,1,1176496,sinestep1_catch.wav,None,1000,21,1276504,1256,101.285
I,1,1176496,vowelstep3.wav,None,1000,21,1278504,328,103.285
I,1,1176496,vowelstep3.wav,None,1000,21,1280504,328,105.285
I,1,1176496,vowelstep5.wav,None,1000,21,1282504,338,107.285
I,1,1176496,sinestep5.wav,None,1000,21,1284504,337,109.285
I,1,1176496,vowelstep5.wav,None,1000,21,1286504,337,111.285
I,1,1176496,vowelstep5.wav,None,1000,21,1288503,348,113.285
I,1,1176496,vowelstep1.wav,None,1000,21,1290503,328,115.285
I,1,1176496,vowelstep1_catch.wav,1,148,21,1292503,327,117.285
I,1,1176496,sinestep7.wav,None,1000,21,1294504,1179,119.285
I,1,1176496,vowelstep3.wav,None,1000,21,1296504,337,121.285
I,1,1176496,sinestep7.wav,None,1000,21,1298504,336,123.285
I,1,1176496,sinestep7.wav,None,1000,21,1300504,336,125.285
I,1,1176496,vowelstep7.wav,None,1000,21,1302504,345,127.285
I,1,1176496,vowelstep3.wav,None,1000,21,1304504,347,129.285
I,1,1176496,sinestep5.wav,None,1000,21,1306504,326,131.285
I,1,1176496,sinestep5.wav,None,1000,21,1308504,327,133.285
I,1,1176496,vowelstep3.wav,None,1000,21,1310504,336,135.285
I,1,1176496,sinestep5.wav,None,1000,21,1312504,336,137.285
I,1,1176496,sinestep1.wav,None,1000,21,1314504,335,139.285
I,1,1176496,vowelstep7.wav,None,1000,21,1316504,345,141.285
I,1,1176496,silence.wav,None,1000,21,1318504,346,143.285
I,1,1176496,vowelstep7.wav,None,1000,21,1320504,345,145.285
I,1,1176496,silence.wav,None,1000,21,1322504,345,147.285
I,1,1176496,sinestep1.wav,None,1000,21,1324504,336,149.285
I,1,1176496,vowelstep1.wav,None,1000,21,1326504,336,151.285
I,1,1176496,vowelstep3.wav,None,1000,21,1328505,336,153.285
I,1,1176496,silence.wav,None,1000,21,1330505,335,155.285
I,1,1176496,silence.wav,None,1000,21,1332505,341,157.285
I,1,1176496,vowelstep1.wav,None,1000,21,1334505,344,159.285
I,1,1176496,sinestep1.wav,None,1000,21,1336505,354,161.285
I,1,1176496,vowelstep3_catch.wav,1,125,21,1338504,335,163.285
I,1,1176496,sinestep1.wav,None,1000,21,1340504,1209,165.285
I,1,1176496,vowelstep5.wav,None,1000,21,1342504,336,167.285
I,1,1176496,vowelstep5_catch.wav,1,317,21,1344504,345,169.285
I,1,1176496,sinestep1.wav,None,1000,21,1346505,1027,171.285
I,1,1176496,silence.wav,None,1000,21,1348505,343,173.285
I,1,1176496,vowelstep5.wav,None,1000,21,1350505,344,175.285
I,1,1176496,sinestep3.wav,None,1000,21,1352505,353,177.285
I,1,1176496,sinestep3.wav,None,1000,21,1354505,334,179.285
I,1,1176496,silence.wav,None,1000,21,1356505,334,181.285
I,1,1176496,silence.wav,None,1000,21,1358505,334,183.285
I,1,1176496,vowelstep3.wav,None,1000,21,1360504,343,185.285
I,1,1176496,vowelstep7.wav,None,1000,21,1362504,344,187.285
I,1,1176496,vowelstep7.wav,None,1000,21,1364505,344,189.285
I,1,1176496,silence.wav,None,1000,21,1366505,352,191.285
I,1,1176496,sinestep3.wav,None,1000,21,1368505,332,193.285
I,1,1176496,sinestep3.wav,None,1000,21,1370505,332,195.285
I,1,1176496,vowelstep5.wav,None,1000,21,1372505,333,197.285
I,1,1176496,vowelstep1.wav,None,1000,21,1374505,343,199.285
I,1,1176496,vowelstep1.wav,None,1000,21,1376505,344,201.285
I,1,1176496,sinestep5.wav,None,1000,21,1378505,343,203.285
I,1,1176496,silence.wav,None,1000,21,1380505,324,205.285
I,1,1176496,sinestep5.wav,None,1000,21,1382506,323,207.285
I,1,1176496,sinestep7.wav,None,1000,21,1384506,333,209.285
I,1,1176496,sinestep1.wav,None,1000,21,1386505,333,211.285
I,1,1176496,sinestep5.wav,None,1000,21,1388505,343,213.285
I,1,1176496,vowelstep5.wav,None,1000,21,1390505,343,215.285
I,1,1176496,sinestep7.wav,None,1000,21,1392505,343,217.285
I,1,1176496,sinestep5.wav,None,1000,21,1394505,353,219.285
I,1,1176496,sinestep3.wav,None,1000,21,1396505,336,221.285
I,1,1176496,silence.wav,None,1000,21,1398506,336,223.285
I,1,1176496,vowelstep7_catch.wav,1,295,21,1400506,336,225.285
I,1,1176496,sinestep7.wav,None,1000,21,1402506,1049,227.285
I,1,1176496,sinestep7.wav,None,1000,21,1404506,345,229.285
I,1,1176496,sinestep3.wav,None,1000,21,1406506,345,231.285
I,1,1176496,vowelstep3.wav,None,1000,21,1408506,326,233.285
I,1,1176496,silence.wav,None,1000,21,1410505,325,235.285
I,1,1176496,sinestep3.wav,None,1000,21,1412505,334,237.285
I,1,1176496,sinestep5.wav,None,1000,21,1414505,335,239.285
I,1,1176496,silence.wav,None,1000,21,1416506,345,241.285
I,1,1176496,vowelstep3.wav,None,1000,21,1418506,344,243.285
I,1,1176496,sinestep1.wav,None,1000,21,1420506,342,245.285
I,1,1176496,sinestep1.wav,None,1000,21,1422506,354,247.285
I,1,1176496,sinestep7.wav,None,1000,21,1424506,334,249.285
I,1,1176496,vowelstep7.wav,None,1000,21,1426506,305,251.285
I,1,1176496,vowelstep5.wav,None,1000,21,1428506,334,253.285
I,1,1176496,silence.wav,None,1000,21,1430506,333,255.285
I,1,1176496,sinestep3.wav,None,1000,21,1432506,344,257.285
I,1,1176496,vowelstep1.wav,None,1000,21,1434506,343,259.285
I,1,1176496,vowelstep1.wav,None,1000,21,1436506,352,261.285
I,1,1176496,silence.wav,None,1000,21,1438506,352,263.285
I,1,1176496,vowelstep3.wav,None,1000,21,1440506,331,265.285
I,1,1176496,silence.wav,None,1000,21,1442506,332,267.285
I,1,1176496,silence.wav,None,1000,21,1444506,331,269.285
I,1,1176496,sinestep7.wav,None,1000,21,1446506,342,271.285
I,1,1176496,sinestep7.wav,None,1000,21,1448506,341,273.285
I,1,1176496,vowelstep5.wav,None,1000,21,1450506,341,275.285
I,1,1176496,silence.wav,None,1000,21,1452507,321,277.285
I,1,1176496,silence.wav,None,1000,21,1454507,331,279.285
I,1,1176496,sinestep1.wav,None,1000,21,1456507,330,281.285
I,1,1176496,silence.wav,None,1000,21,1458506,330,283.285
I,1,1176496,vowelstep7.wav,None,1000,21,1460506,340,285.285
I,1,1176496,vowelstep5_catch.wav,1,146,21,1462506,341,287.285
I,1,1176496,sinestep7.wav,None,1000,21,1464506,1193,289.285
I,1,1176496,sinestep1.wav,None,1000,21,1466506,351,291.285
I,1,1176496,vowelstep3_catch.wav,1,266,21,1468507,331,293.285
I,1,1176496,sinestep1.wav,None,1000,21,1470507,1063,295.285
I,1,1176496,vowelstep7.wav,None,1000,21,1472507,330,297.285
I,1,1176496,sinestep3.wav,None,1000,21,1474507,340,299.285
I,1,1176496,vowelstep5.wav,None,1000,21,1476507,340,301.285
I,1,1176496,vowelstep1_catch.wav,1,83,21,1478507,349,303.285
I,1,1176496,vowelstep7.wav,None,1000,21,1480507,1235,305.285
I,1,1176496,vowelstep5.wav,None,1000,21,1482506,329,307.285
I,1,1176496,sinestep1_catch.wav,1,116,21,1484506,329,309.285
I,1,1176496,silence.wav,None,1000,21,1486507,1222,311.285
I,1,1176496,sinestep7.wav,None,1000,21,1488507,338,313.285
I,1,1176496,silence.wav,None,1000,21,1490507,339,315.285
I,1,1176496,vowelstep1.wav,None,1000,21,1492507,339,317.285
I,1,1176496,sinestep7.wav,None,1000,21,1494507,340,319.285
B,2,1552007,vowelstep5.wav,None,1000,21,1552024,0,1.285
B,2,1552007,silence.wav,None,1000,21,1554024,313,3.285
B,2,1552007,sinestep7.wav,None,1000,21,1556025,325,5.285
B,2,1552007,vowelstep1_catch.wav,1,175,21,1558025,324,7.285
B,2,1552007,vowelstep7.wav,None,1000,21,1560025,1159,9.285
B,2,1552007,vowelstep3.wav,None,1000,21,1562042,336,11.285
B,2,1552007,vowelstep7.wav,None,1000,21,1564025,313,13.285
B,2,1552007,vowelstep5.wav,None,1000,21,1566025,341,15.285
B,2,1552007,vowelstep7.wav,None,1000,21,1568025,322,17.285
B,2,1552007,vowelstep3.wav,None,1000,21,1570025,321,19.285
B,2,1552007,silence.wav,None,1000,21,1572024,321,21.285
B,2,1552007,silence.wav,None,1000,21,1574025,331,23.285
B,2,1552007,sinestep5.wav,None,1000,21,1576025,330,25.285
B,2,1552007,sinestep1.wav,None,1000,21,1578025,330,27.285
B,2,1552007,vowelstep7.wav,None,1000,21,1580025,340,29.285
B,2,1552007,sinestep5.wav,None,1000,21,1582025,320,31.285
B,2,1552007,vowelstep1.wav,None,1000,21,1584025,320,33.285
B,2,1552007,vowelstep7.wav,None,1000,21,1586025,320,35.285
B,2,1552007,vowelstep3.wav,None,1000,21,1588025,330,37.285
B,2,1552007,sinestep5.wav,None,1000,21,1590025,330,39.285
B,2,1552007,vowelstep1.wav,None,1000,21,1592026,330,41.285
B,2,1552007,sinestep3.wav,None,1000,21,1594026,339,43.285
B,2,1552007,vowelstep5.wav,None,1000,21,1596025,309,45.285
B,2,1552007,vowelstep7.wav,None,1000,21,1598025,319,47.285
B,2,1552007,vowelstep3.wav,None,1000,21,1600025,319,49.285
B,2,1552007,sinestep7.wav,None,1000,21,1602025,328,51.285
B,2,1552007,sinestep3.wav,None,1000,21,1604025,330,53.285
B,2,1552007,sinestep1.wav,None,1000,21,1606025,329,55.285
B,2,1552007,sinestep1.wav,None,1000,21,1608025,339,57.285
B,2,1552007,sinestep5.wav,None,1000,21,1610026,338,59.285
B,2,1552007,vowelstep5.wav,None,1000,21,1612026,317,61.285
B,2,1552007,vowelstep3_catch.wav,1,127,21,1614026,317,63.285
B,2,1552007,vowelstep7.wav,None,1000,21,1616026,1200,65.285
B,2,1552007,sinestep1.wav,None,1000,21,1618026,328,67.285
B,2,1552007,vowelstep5.wav,None,1000,21,1620026,327,69.285
B,2,1552007,vowelstep5_catch.wav,1,409,21,1622025,338,71.285
B,2,1552007,vowelstep7.wav,None,1000,21,1624025,898,73.285
B,2,1552007,sinestep3.wav,None,1000,21,1626010,317,75.285
B,2,1552007,vowelstep7_catch.wav,1,241,21,1628026,337,77.285
B,2,1552007,sinestep5.wav,None,1000,21,1630026,1086,79.285
B,2,1552007,vowelstep5.wav,None,1000,21,1632026,327,81.285
B,2,1552007,silence.wav,None,1000,21,1634026,327,83.285
B,2,1552007,silence.wav,None,1000,21,1636026,336,85.285
B,2,1552007,vowelstep3.wav,None,1000,21,1638026,337,87.285
B,2,1552007,silence.wav,None,1000,21,1640026,316,89.285
B,2,1552007,sinestep1.wav,None,1000,21,1642026,317,91.285
B,2,1552007,sinestep1.wav,None,1000,21,1644010,326,93.285
B,2,1552007,sinestep5.wav,None,1000,21,1646026,347,95.285
B,2,1552007,vowelstep7.wav,None,1000,21,1648026,326,97.285
B,2,1552007,sinestep5.wav,None,1000,21,1650026,335,99.285
B,2,1552007,sinestep5.wav,None,1000,21,1652026,336,101.285
B,2,1552007,silence.wav,None,1000,21,1654026,315,103.285
B,2,1552007,vowelstep1.wav,None,1000,21,1656026,312,105.285
B,2,1552007,silence.wav,None,1000,21,1658026,315,107.285
B,2,1552007,sinestep1.wav,None,1000,21,1660026,325,109.285
B,2,1552007,vowelstep7.wav,None,1000,21,1662010,326,111.285
B,2,1552007,silence.wav,None,1000,21,1664010,355,113.285
B,2,1552007,sinestep1.wav,None,1000,21,1666027,334,115.285
B,2,1552007,vowelstep3.wav,None,1000,21,1668027,315,117.285
B,2,1552007,vowelstep5.wav,None,1000,21,1670026,314,119.285
B,2,1552007,silence.wav,None,1000,21,1672026,315,121.285
B,2,1552007,sinestep3.wav,None,1000,21,1674010,325,123.285
B,2,1552007,sinestep5.wav,None,1000,21,1676026,344,125.285
B,2,1552007,silence.wav,None,1000,21,1678010,325,127.285
B,2,1552007,vowelstep5.wav,None,1000,21,1680010,333,129.285
B,2,1552007,sinestep3.wav,None,1000,21,1682010,333,131.285
B,2,1552007,sinestep5.wav,None,1000,21,1684027,335,133.285
B,2,1552007,sinestep5.wav,None,1000,21,1686027,316,135.285
B,2,1552007,sinestep7.wav,None,1000,21,1688027,326,137.285
B,2,1552007,sinestep7.wav,None,1000,21,1690010,326,139.285
B,2,1552007,vowelstep5.wav,None,1000,21,1692010,355,141.285
B,2,1552007,sinestep1.wav,None,1000,21,1694010,336,143.285
B,2,1552007,vowelstep7.wav,None,1000,21,1696011,334,145.285
B,2,1552007,sinestep7.wav,None,1000,21,1698011,334,147.285
B,2,1552007,vowelstep5.wav,None,1000,21,1700011,344,149.285
B,2,1552007,vowelstep1.wav,None,1000,21,1702027,344,151.285
B,2,1552007,sinestep3.wav,None,1000,21,1704027,325,153.285
B,2,1552007,silence.wav,None,1000,21,1706010,326,155.285
B,2,1552007,silence.wav,None,1000,21,1708010,324,157.285
B,2,1552007,sinestep7_catch.wav,1,257,21,1710010,335,159.285
B,2,1552007,vowelstep5.wav,None,1000,21,1712010,1076,161.285
B,2,1552007,sinestep7.wav,None,1000,21,1714011,344,163.285
B,2,1552007,vowelstep5.wav,None,1000,21,1716011,343,165.285
B,2,1552007,vowelstep3.wav,None,1000,21,1718011,344,167.285
B,2,1552007,silence.wav,None,1000,21,1720027,353,169.285
B,2,1552007,sinestep3.wav,None,1000,21,1722011,333,171.285
B,2,1552007,sinestep7_catch.wav,1,158,21,1724011,333,173.285
B,2,1552007,sinestep3.wav,None,1000,21,1726010,1175,175.285
B,2,1552007,sinestep5_catch.wav,1,271,21,1728010,342,177.285
B,2,1552007,vowelstep5.wav,None,1000,21,1730010,1071,179.285
B,2,1552007,silence.wav,None,1000,21,1732011,341,181.285
B,2,1552007,sinestep7.wav,None,1000,21,1734011,352,183.285
B,2,1552007,silence.wav,None,1000,21,1736011,331,185.285
B,2,1552007,sinestep3.wav,None,1000,21,1738011,331,187.285
B,2,1552007,silence.wav,None,1000,21,1740011,330,189.285
B,2,1552007,vowelstep7.wav,None,1000,21,1742011,341,191.285
B,2,1552007,vowelstep3.wav,None,1000,21,1744011,341,193.285
B,2,1552007,vowelstep3.wav,None,1000,21,1746011,340,195.285
B,2,1552007,sinestep7.wav,None,1000,21,1748012,351,197.285
B,2,1552007,sinestep7.wav,None,1000,21,1750011,320,199.285
B,2,1552007,sinestep3.wav,None,1000,21,1752011,330,201.285
B,2,1552007,sinestep3_catch.wav,1,335,21,1754011,331,203.285
B,2,1552007,sinestep1.wav,None,1000,21,1756011,995,205.285
B,2,1552007,sinestep1.wav,None,1000,21,1758011,339,207.285
B,2,1552007,sinestep3.wav,None,1000,21,1760011,337,209.285
B,2,1552007,silence.wav,None,1000,21,1762011,339,211.285
B,2,1552007,silence.wav,None,1000,21,1764011,349,213.285
B,2,1552007,sinestep5_catch.wav,1,247,21,1766012,329,215.285
B,2,1552007,sinestep7.wav,None,1000,21,1768012,1081,217.285
B,2,1552007,sinestep7.wav,None,1000,21,1770012,328,219.285
B,2,1552007,vowelstep3.wav,None,1000,21,1772012,334,221.285
B,2,1552007,sinestep1_catch.wav,1,77,21,1774012,335,223.285
B,2,1552007,vowelstep5.wav,None,1000,21,1776011,1270,225.285
B,2,1552007,sinestep1.wav,None,1000,21,1778011,348,227.285
B,2,1552007,vowelstep1.wav,None,1000,21,1780011,348,229.285
B,2,1552007,vowelstep1.wav,None,1000,21,1782011,348,231.285
B,2,1552007,sinestep5.wav,None,1000,21,1784012,338,233.285
B,2,1552007,silence.wav,None,1000,21,1786012,338,235.285
B,2,1552007,silence.wav,None,1000,21,1788012,338,237.285
B,2,1552007,vowelstep1.wav,None,1000,21,1790012,337,239.285
B,2,1552007,vowelstep1.wav,None,1000,21,1792012,346,241.285
B,2,1552007,silence.wav,None,1000,21,1794012,347,243.285
B,2,1552007,vowelstep1_catch.wav,1,366,21,1796012,347,245.285
B,2,1552007,sinestep7.wav,None,1000,21,1798012,961,247.285
B,2,1552007,sinestep1.wav,None,1000,21,1800011,337,249.285
B,2,1552007,vowelstep1.wav,None,1000,21,1802012,336,251.285
B,2,1552007,vowelstep3.wav,None,1000,21,1804012,336,253.285
B,2,1552007,sinestep3.wav,None,1000,21,1806012,347,255.285
B,2,1552007,silence.wav,None,1000,21,1808012,347,257.285
B,2,1552007,vowelstep3.wav,None,1000,21,1810012,347,259.285
B,2,1552007,silence.wav,None,1000,21,1812012,356,261.285
B,2,1552007,vowelstep3.wav,None,1000,21,1814012,336,263.285
B,2,1552007,sinestep5.wav,None,1000,21,1816012,336,265.285
B,2,1552007,vowelstep3_catch.wav,1,157,21,1818013,336,267.285
B,2,1552007,sinestep3.wav,None,1000,21,1820013,1187,269.285
B,2,1552007,sinestep1.wav,None,1000,21,1822013,345,271.285
B,2,1552007,vowelstep3.wav,None,1000,21,1824012,344,273.285
B,2,1552007,vowelstep1.wav,None,1000,21,1826012,355,275.285
B,2,1552007,vowelstep5_catch.wav,1,223,21,1828012,335,277.285
B,2,1552007,vowelstep1.wav,None,1000,21,1830012,1111,279.285
B,2,1552007,vowelstep5.wav,None,1000,21,1832012,335,281.285
B,2,1552007,sinestep7.wav,None,1000,21,1834012,334,283.285
B,2,1552007,vowelstep7.wav,None,1000,21,1836013,344,285.285
B,2,1552007,vowelstep1_catch.wav,1,232,21,1838013,341,287.285
B,2,1552007,sinestep1.wav,None,1000,21,1840013,1120,289.285
B,2,1552007,vowelstep1.wav,None,1000,21,1842013,325,291.285
B,2,1552007,sinestep5.wav,None,1000,21,1844013,334,293.285
B,2,1552007,vowelstep7.wav,None,1000,21,1846013,334,295.285
B,2,1552007,sinestep7.wav,None,1000,21,1848012,344,297.285
B,2,1552007,vowelstep7_catch.wav,1,294,21,1850012,345,299.285
B,2,1552007,sinestep3.wav,None,1000,21,1852012,1049,301.285
B,2,1552007,vowelstep3.wav,None,1000,21,1854013,351,303.285
B,2,1552007,sinestep5.wav,None,1000,21,1856013,332,305.285
B,2,1552007,vowelstep1.wav,None,1000,21,1858013,334,307.285
B,2,1552007,vowelstep7.wav,None,1000,21,1860013,333,309.285
B,2,1552007,vowelstep1.wav,None,1000,21,1862013,334,311.285
B,2,1552007,sinestep7.wav,None,1000,21,1864013,343,313.285
B,2,1552007,sinestep3.wav,None,1000,21,1866013,342,315.285
B,2,1552007,silence.wav,None,1000,21,1868013,353,317.285
B,2,1552007,vowelstep1.wav,None,1000,21,1870013,323,319.285
D,3,1934755,sinestep5.wav,None,1000,21,1934764,0,1.285
D,3,1934755,vowelstep1_catch.wav,1,257,21,1936764,317,3.285
D,3,1934755,sinestep7.wav,None,1000,21,1938764,1069,5.285
D,3,1934755,vowelstep3.wav,None,1000,21,1940765,326,7.285
D,3,1934755,vowelstep3_catch.wav,1,169,21,1942765,326,9.285
D,3,1934755,vowelstep5_catch.wav,1,226,21,1944765,1167,11.285
D,3,1934755,sinestep7.wav,None,1000,21,1946764,1109,13.285
D,3,1934755,silence.wav,None,1000,21,1948764,336,15.285
D,3,1934755,vowelstep7_catch.wav,1,542,21,1950764,345,17.285
D,3,1934755,vowelstep7.wav,None,1000,21,1952764,783,19.285
D,3,1934755,vowelstep3.wav,None,1000,21,1954764,325,21.285
D,3,1934755,vowelstep7_catch.wav,1,288,21,1956764,325,23.285
D,3,1934755,vowelstep5.wav,None,1000,21,1958765,1047,25.285
D,3,1934755,sinestep7.wav,None,1000,21,1960765,335,27.285
D,3,1934755,silence.wav,None,1000,21,1962765,334,29.285
D,3,1934755,vowelstep1.wav,None,1000,21,1964765,344,31.285
D,3,1934755,vowelstep1.wav,None,1000,21,1966765,324,33.285
D,3,1934755,vowelstep7.wav,None,1000,21,1968765,325,35.285
D,3,1934755,vowelstep3.wav,None,1000,21,1970764,325,37.285
D,3,1934755,sinestep3.wav,None,1000,21,1972764,334,39.285
D,3,1934755,sinestep1.wav,None,1000,21,1974764,335,41.285
D,3,1934755,vowelstep1.wav,None,1000,21,1976765,335,43.285
D,3,1934755,vowelstep1.wav,None,1000,21,1978765,344,45.285
D,3,1934755,sinestep7.wav,None,1000,21,1980765,314,47.285
D,3,1934755,sinestep3.wav,None,1000,21,1982765,323,49.285
D,3,1934755,vowelstep5_catch.wav,1,57,21,1984765,324,51.285
D,3,1934755,sinestep7.wav,None,1000,21,1986765,1276,53.285
D,3,1934755,vowelstep5.wav,None,1000,21,1988765,334,55.285
D,3,1934755,sinestep3.wav,None,1000,21,1990765,334,57.285
D,3,1934755,sinestep7.wav,None,1000,21,1992766,333,59.285
D,3,1934755,vowelstep3.wav,None,1000,21,1994765,322,61.285
D,3,1934755,vowelstep3.wav,None,1000,21,1996765,321,63.285
D,3,1934755,vowelstep3_catch.wav,1,150,21,1998765,322,65.285
D,3,1934755,silence.wav,None,1000,21,2000765,1172,67.285
D,3,1934755,vowelstep7.wav,None,1000,21,2002765,332,69.285
D,3,1934755,silence.wav,None,1000,21,2004765,332,71.285
D,3,1934755,sinestep1.wav,None,1000,21,2006765,342,73.285
D,3,1934755,vowelstep5.wav,None,1000,21,2008765,312,75.285
D,3,1934755,vowelstep1.wav,None,1000,21,2010766,322,77.285
D,3,1934755,sinestep7.wav,None,1000,21,2012766,321,79.285
D,3,1934755,vowelstep1.wav,None,1000,21,2014766,331,81.285
D,3,1934755,sinestep7.wav,None,1000,21,2016766,331,83.285
D,3,1934755,vowelstep7.wav,None,1000,21,2018766,331,85.285
D,3,1934755,vowelstep5.wav,None,1000,21,2020765,332,87.285
D,3,1934755,vowelstep1.wav,None,1000,21,2022765,321,89.285
D,3,1934755,sinestep5.wav,None,1000,21,2024765,341,91.285
D,3,1934755,sinestep5.wav,None,1000,21,2026765,342,93.285
D,3,1934755,vowelstep3.wav,None,1000,21,2028766,321,95.285
D,3,1934755,silence.wav,None,1000,21,2030766,331,97.285
D,3,1934755,sinestep1.wav,None,1000,21,2032766,329,99.285
D,3,1934755,sinestep1.wav,None,1000,21,2034766,331,101.285
D,3,1934755,sinestep3.wav,None,1000,21,2036766,341,103.285
D,3,1934755,vowelstep1.wav,None,1000,21,2038766,340,105.285
D,3,1934755,sinestep7.wav,None,1000,21,2040766,340,107.285
D,3,1934755,vowelstep3.wav,None,1000,21,2042766,350,109.285
D,3,1934755,silence.wav,None,1000,21,2044765,330,111.285
D,3,1934755,vowelstep5.wav,None,1000,21,2046766,329,113.285
D,3,1934755,vowelstep1.wav,None,1000,21,2048766,329,115.285
D,3,1934755,vowelstep1_catch.wav,1,202,21,2050766,339,117.285
D,3,1934755,vowelstep7.wav,None,1000,21,2052766,1136,119.285
D,3,1934755,sinestep5.wav,None,1000,21,2054766,340,121.285
D,3,1934755,vowelstep7.wav,None,1000,21,2056766,350,123.285
D,3,1934755,sinestep1.wav,None,1000,21,2058766,329,125.285
D,3,1934755,sinestep1.wav,None,1000,21,2060766,329,127.285
D,3,1934755,vowelstep3.wav,None,1000,21,2062767,329,129.285
D,3,1934755,sinestep1.wav,None,1000,21,2064767,329,131.285
D,3,1934755,silence.wav,None,1000,21,2066767,339,133.285
D,3,1934755,sinestep3.wav,None,1000,21,2068766,338,135.285
D,3,1934755,silence.wav,None,1000,21,2070766,348,137.285
D,3,1934755,vowelstep3.wav,None,1000,21,2072766,319,139.285
D,3,1934755,vowelstep5.wav,None,1000,21,2074766,328,141.285
D,3,1934755,silence.wav,None,1000,21,2076766,328,143.285
D,3,1934755,sinestep5.wav,None,1000,21,2078766,338,145.285
D,3,1934755,sinestep5.wav,None,1000,21,2080767,337,147.285
D,3,1934755,sinestep1.wav,None,1000,21,2082767,337,149.285
D,3,1934755,vowelstep5.wav,None,1000,21,2084767,337,151.285
D,3,1934755,vowelstep5.wav,None,1000,21,2086767,327,153.285
D,3,1934755,sinestep1_catch.wav,1,81,21,2088767,328,155.285
D,3,1934755,sinestep5.wav,None,1000,21,2090767,1245,157.285
D,3,1934755,vowelstep3.wav,None,1000,21,2092766,327,159.285
D,3,1934755,vowelstep7.wav,None,1000,21,2094766,336,161.285
D,3,1934755,vowelstep3.wav,None,1000,21,2096766,337,163.285
D,3,1934755,sinestep3.wav,None,1000,21,2098767,337,165.285
D,3,1934755,sinestep1.wav,None,1000,21,2100767,326,167.285
D,3,1934755,silence.wav,None,1000,21,2102767,326,169.285
D,3,1934755,sinestep1.wav,None,1000,21,2104767,325,171.285
D,3,1934755,vowelstep1.wav,None,1000,21,2106767,336,173.285
D,3,1934755,vowelstep3.wav,None,1000,21,2108767,336,175.285
D,3,1934755,silence.wav,None,1000,21,2110767,336,177.285
D,3,1934755,sinestep7.wav,None,1000,21,2112767,336,179.285
D,3,1934755,silence.wav,None,1000,21,2114767,326,181.285
D,3,1934755,vowelstep7.wav,None,1000,21,2116767,325,183.285
D,3,1934755,sinestep3.wav,None,1000,21,2118767,325,185.285
D,3,1934755,vowelstep1.wav,None,1000,21,2120767,325,187.285
D,3,1934755,sinestep7.wav,None,1000,21,2122767,334,189.285
D,3,1934755,silence.wav,None,1000,21,2124767,335,191.285
D,3,1934755,sinestep1.wav,None,1000,21,2126767,344,193.285
D,3,1934755,sinestep3.wav,None,1000,21,2128767,345,195.285
D,3,1934755,sinestep5.wav,None,1000,21,2130767,325,197.285
D,3,1934755,vowelstep3.wav,None,1000,21,2132768,325,199.285
D,3,1934755,sinestep5.wav,None,1000,21,2134768,325,201.285
D,3,1934755,sinestep5.wav,None,1000,21,2136768,335,203.285
D,3,1934755,sinestep3.wav,None,1000,21,2138768,334,205.285
D,3,1934755,sinestep3.wav,None,1000,21,2140767,343,207.285
D,3,1934755,sinestep5.wav,None,1000,21,2142767,313,209.285
D,3,1934755,sinestep3_catch.wav,1,339,21,2144767,323,211.285
D,3,1934755,vowelstep7.wav,None,1000,21,2146767,984,213.285
D,3,1934755,sinestep1.wav,None,1000,21,2148767,324,215.285
D,3,1934755,sinestep7.wav,None,1000,21,2150768,334,217.285
D,3,1934755,vowelstep1.wav,None,1000,21,2152768,333,219.285
D,3,1934755,sinestep5.wav,None,1000,21,2154768,333,221.285
D,3,1934755,silence.wav,None,1000,21,2156768,342,223.285
D,3,1934755,sinestep5_catch.wav,1,196,21,2158768,322,225.285
D,3,1934755,sinestep5.wav,None,1000,21,2160768,1127,227.285
D,3,1934755,silence.wav,None,1000,21,2162768,324,229.285
D,3,1934755,vowelstep7.wav,None,1000,21,2164767,324,231.285
D,3,1934755,sinestep3.wav,None,1000,21,2166767,333,233.285
D,3,1934755,vowelstep5.wav,None,1000,21,2168768,334,235.285
D,3,1934755,vowelstep7.wav,None,1000,21,2170768,342,237.285
D,3,1934755,vowelstep5.wav,None,1000,21,2172768,312,239.285
D,3,1934755,silence.wav,None,1000,21,2174768,323,241.285
D,3,1934755,silence.wav,None,1000,21,2176768,321,243.285
D,3,1934755,silence.wav,None,1000,21,2178768,332,245.285
D,3,1934755,sinestep7.wav,None,1000,21,2180768,331,247.285
D,3,1934755,sinestep5.wav,None,1000,21,2182768,333,249.285
D,3,1934755,sinestep7_catch.wav,1,74,21,2184768,342,251.285
D,3,1934755,vowelstep1.wav,None,1000,21,2186769,1246,253.285
D,3,1934755,vowelstep1.wav,None,1000,21,2188768,320,255.285
D,3,1934755,vowelstep3.wav,None,1000,21,2190768,320,257.285
D,3,1934755,silence.wav,None,1000,21,2192768,331,259.285
D,3,1934755,sinestep5.wav,None,1000,21,2194768,331,261.285
D,3,1934755,vowelstep7.wav,None,1000,21,2196768,330,263.285
D,3,1934755,vowelstep3.wav,None,1000,21,2198768,340,265.285
D,3,1934755,vowelstep7.wav,None,1000,21,2200768,341,267.285
D,3,1934755,vowelstep5.wav,None,1000,21,2202769,320,269.285
D,3,1934755,sinestep1.wav,None,1000,21,2204769,319,271.285
D,3,1934755,sinestep7.wav,None,1000,21,2206769,329,273.285
D,3,1934755,sinestep3.wav,None,1000,21,2208769,329,275.285
D,3,1934755,silence.wav,None,1000,21,2210769,329,277.285
D,3,1934755,sinestep7.wav,None,1000,21,2212768,339,279.285
D,3,1934755,vowelstep5.wav,None,1000,21,2214768,309,281.285
D,3,1934755,sinestep1.wav,None,1000,21,2216768,320,283.285
D,3,1934755,vowelstep1.wav,None,1000,21,2218768,319,285.285
D,3,1934755,sinestep1.wav,None,1000,21,2220769,328,287.285
D,3,1934755,vowelstep5.wav,None,1000,21,2222769,328,289.285
D,3,1934755,silence.wav,None,1000,21,2224769,330,291.285
D,3,1934755,sinestep3.wav,None,1000,21,2226769,331,293.285
D,3,1934755,vowelstep5.wav,None,1000,21,2228769,317,295.285
D,3,1934755,silence.wav,None,1000,21,2230769,321,297.285
D,3,1934755,sinestep3.wav,None,1000,21,2232769,322,299.285
D,3,1934755,vowelstep7.wav,None,1000,21,2234769,321,301.285
D,3,1934755,sinestep7_catch.wav,1,148,21,2236769,331,303.285
D,3,1934755,sinestep5_catch.wav,1,147,21,2238769,1182,305.285
D,3,1934755,sinestep3.wav,None,1000,21,2240769,1192,307.285
D,3,1934755,vowelstep5.wav,None,1000,21,2242769,320,309.285
D,3,1934755,silence.wav,None,1000,21,2244769,321,311.285
D,3,1934755,sinestep3_catch.wav,1,222,21,2246769,321,313.285
D,3,1934755,silence.wav,None,1000,21,2248769,1108,315.285
D,3,1934755,vowelstep7.wav,None,1000,21,2250769,330,317.285
D,3,1934755,silence.wav,None,1000,21,2252769,330,319.285
F,4,2313181,sinestep1.wav,None,1000,21,2313187,0,1.285
F,4,2313181,vowelstep5.wav,None,1000,21,2315187,346,3.285
F,4,2313181,vowelstep3.wav,None,1000,21,2317187,345,5.285
F,4,2313181,sinestep5.wav,None,1000,21,2319187,356,7.285
F,4,2313181,vowelstep7.wav,None,1000,21,2321187,336,9.285
F,4,2313181,silence.wav,None,1000,21,2323187,336,11.285
F,4,2313181,vowelstep5.wav,None,1000,21,2325188,335,13.285
F,4,2313181,sinestep3.wav,None,1000,21,2327187,345,15.285
F,4,2313181,sinestep3.wav,None,1000,21,2329187,344,17.285
F,4,2313181,silence.wav,None,1000,21,2331187,345,19.285
F,4,2313181,vowelstep7.wav,None,1000,21,2333187,324,21.285
F,4,2313181,vowelstep7.wav,None,1000,21,2335187,334,23.285
F,4,2313181,vowelstep1_catch.wav,1,78,21,2337187,334,25.285
F,4,2313181,vowelstep3_catch.wav,1,162,21,2339187,1264,27.285
F,4,2313181,vowelstep1.wav,None,1000,21,2341187,1180,29.285
F,4,2313181,sinestep5.wav,None,1000,21,2343188,344,31.285
F,4,2313181,sinestep5.wav,None,1000,21,2345188,343,33.285
F,4,2313181,vowelstep7.wav,None,1000,21,2347188,333,35.285
F,4,2313181,sinestep3.wav,None,1000,21,2349188,333,37.285
F,4,2313181,sinestep7.wav,None,1000,21,2351187,334,39.285
F,4,2313181,vowelstep5_catch.wav,1,168,21,2353187,332,41.285
F,4,2313181,sinestep1.wav,None,1000,21,2355187,1174,43.285
F,4,2313181,vowelstep7_catch.wav,1,160,21,2357187,343,45.285
F,4,2313181,vowelstep3.wav,None,1000,21,2359187,1182,47.285
F,4,2313181,sinestep1.wav,None,1000,21,2361188,352,49.285
F,4,2313181,sinestep7.wav,None,1000,21,2363188,332,51.285
F,4,2313181,silence.wav,None,1000,21,2365188,332,53.285
F,4,2313181,sinestep7.wav,None,1000,21,2367188,332,55.285
F,4,2313181,vowelstep1.wav,None,1000,21,2369188,342,57.285
F,4,2313181,vowelstep3.wav,None,1000,21,2371188,342,59.285
F,4,2313181,vowelstep7_catch.wav,1,224,21,2373188,342,61.285
F,4,2313181,sinestep5.wav,None,1000,21,2375187,1127,63.285
F,4,2313181,sinestep3.wav,None,1000,21,2377187,331,65.285
F,4,2313181,vowelstep3.wav,None,1000,21,2379188,330,67.285
F,4,2313181,silence.wav,None,1000,21,2381188,331,69.285
F,4,2313181,vowelstep1.wav,None,1000,21,2383188,341,71.285
F,4,2313181,vowelstep1.wav,None,1000,21,2385188,340,73.285
F,4,2313181,vowelstep5_catch.wav,1,129,21,2387188,340,75.285
F,4,2313181,silence.wav,None,1000,21,2389188,1221,77.285
F,4,2313181,vowelstep3.wav,None,1000,21,2391188,329,79.285
F,4,2313181,vowelstep5.wav,None,1000,21,2393188,330,81.285
F,4,2313181,vowelstep3_catch.wav,1,147,21,2395189,328,83.285
F,4,2313181,vowelstep3.wav,None,1000,21,2397189,1180,85.285
F,4,2313181,sinestep7.wav,None,1000,21,2399189,339,87.285
F,4,2313181,vowelstep1.wav,None,1000,21,2401188,338,89.285
F,4,2313181,sinestep1.wav,None,1000,21,2403188,349,91.285
F,4,2313181,vowelstep1_catch.wav,1,421,21,2405188,328,93.285
F,4,2313181,vowelstep5.wav,None,1000,21,2407188,906,95.285
F,4,2313181,sinestep7.wav,None,1000,21,2409188,328,97.285
F,4,2313181,vowelstep7.wav,None,1000,21,2411188,338,99.285
F,4,2313181,vowelstep3.wav,None,1000,21,2413189,338,101.285
F,4,2313181,sinestep3.wav,None,1000,21,2415189,338,103.285
F,4,2313181,silence.wav,None,1000,21,2417189,347,105.285
F,4,2313181,sinestep1.wav,None,1000,21,2419189,347,107.285
F,4,2313181,sinestep1.wav,None,1000,21,2421189,326,109.285
F,4,2313181,silence.wav,None,1000,21,2423189,327,111.285
F,4,2313181,sinestep7.wav,None,1000,21,2425188,327,113.285
F,4,2313181,vowelstep3.wav,None,1000,21,2427188,337,115.285
F,4,2313181,sinestep3.wav,None,1000,21,2429188,337,117.285
F,4,2313181,vowelstep3.wav,None,1000,21,2431189,346,119.285
F,4,2313181,vowelstep7.wav,None,1000,21,2433189,346,121.285
F,4,2313181,vowelstep7.wav,None,1000,21,2435189,345,123.285
F,4,2313181,vowelstep5.wav,None,1000,21,2437189,345,125.285
F,4,2313181,sinestep1.wav,None,1000,21,2439189,335,127.285
F,4,2313181,silence.wav,None,1000,21,2441189,335,129.285
F,4,2313181,sinestep1.wav,None,1000,21,2443189,336,131.285
F,4,2313181,sinestep3.wav,None,1000,21,2445189,336,133.285
F,4,2313181,sinestep1_catch.wav,1,76,21,2447189,345,135.285
F,4,2313181,sinestep3.wav,None,1000,21,2449189,1266,137.285
F,4,2313181,sinestep3.wav,None,1000,21,2451189,354,139.285
F,4,2313181,silence.wav,None,1000,21,2453189,354,141.285
F,4,2313181,silence.wav,None,1000,21,2455189,334,143.285
F,4,2313181,sinestep7.wav,None,1000,21,2457189,334,145.285
F,4,2313181,sinestep5.wav,None,1000,21,2459189,335,147.285
F,4,2313181,vowelstep1.wav,None,1000,21,2461189,344,149.285
F,4,2313181,sinestep7.wav,None,1000,21,2463189,344,151.285
F,4,2313181,silence.wav,None,1000,21,2465190,343,153.285
F,4,2313181,sinestep3_catch.wav,1,338,21,2467190,323,155.285
F,4,2313181,vowelstep5.wav,None,1000,21,2469190,995,157.285
F,4,2313181,sinestep3.wav,None,1000,21,2471190,333,159.285
F,4,2313181,vowelstep5.wav,None,1000,21,2473189,333,161.285
F,4,2313181,sinestep3.wav,None,1000,21,2475189,343,163.285
F,4,2313181,vowelstep3.wav,None,1000,21,2477189,343,165.285
F,4,2313181,vowelstep1.wav,None,1000,21,2479189,343,167.285
F,4,2313181,sinestep5.wav,None,1000,21,2481189,352,169.285
F,4,2313181,vowelstep5.wav,None,1000,21,2483190,333,171.285
F,4,2313181,vowelstep1.wav,None,1000,21,2485190,332,173.285
F,4,2313181,vowelstep1.wav,None,1000,21,2487190,331,175.285
F,4,2313181,sinestep7.wav,None,1000,21,2489190,341,177.285
F,4,2313181,vowelstep1.wav,None,1000,21,2491190,342,179.285
F,4,2313181,sinestep5.wav,None,1000,21,2493190,341,181.285
F,4,2313181,vowelstep7.wav,None,1000,21,2495190,321,183.285
F,4,2313181,sinestep1.wav,None,1000,21,2497190,331,185.285
F,4,2313181,vowelstep7.wav,None,1000,21,2499189,332,187.285
F,4,2313181,sinestep5.wav,None,1000,21,2501190,331,189.285
F,4,2313181,vowelstep5.wav,None,1000,21,2503190,339,191.285
F,4,2313181,silence.wav,None,1000,21,2505190,340,193.285
F,4,2313181,sinestep7.wav,None,1000,21,2507190,340,195.285
F,4,2313181,vowelstep5.wav,None,1000,21,2509190,351,197.285
F,4,2313181,vowelstep7.wav,None,1000,21,2511190,330,199.285
F,4,2313181,silence.wav,None,1000,21,2513190,330,201.285
F,4,2313181,vowelstep1.wav,None,1000,21,2515190,331,203.285
F,4,2313181,vowelstep7.wav,None,1000,21,2517191,340,205.285
F,4,2313181,vowelstep7.wav,None,1000,21,2519191,339,207.285
F,4,2313181,vowelstep3.wav,None,1000,21,2521190,339,209.285
F,4,2313181,vowelstep3.wav,None,1000,21,2523190,350,211.285
F,4,2313181,silence.wav,None,1000,21,2525190,319,213.285
F,4,2313181,sinestep7.wav,1,337,21,2527190,330,215.285
F,4,2313181,sinestep1.wav,None,1000,21,2529190,991,217.285
F,4,2313181,silence.wav,None,1000,21,2531190,340,219.285
F,4,2313181,vowelstep1.wav,None,1000,21,2533190,339,221.285
F,4,2313181,sinestep5_catch.wav,1,327,21,2535191,338,223.285
F,4,2313181,sinestep1.wav,None,1000,21,2537191,1011,225.285
F,4,2313181,silence.wav,None,1000,21,2539191,318,227.285
F,4,2313181,sinestep7.wav,None,1000,21,2541191,328,229.285
F,4,2313181,sinestep7.wav,None,1000,21,2543191,328,231.285
F,4,2313181,silence.wav,None,1000,21,2545191,338,233.285
F,4,2313181,vowelstep5.wav,None,1000,21,2547190,339,235.285
F,4,2313181,sinestep7.wav,None,1000,21,2549190,338,237.285
F,4,2313181,sinestep5.wav,None,1000,21,2551190,338,239.285
F,4,2313181,sinestep5.wav,None,1000,21,2553191,348,241.285
F,4,2313181,silence.wav,None,1000,21,2555191,327,243.285
F,4,2313181,vowelstep3.wav,None,1000,21,2557191,327,245.285
F,4,2313181,vowelstep3.wav,None,1000,21,2559191,328,247.285
F,4,2313181,silence.wav,None,1000,21,2561191,337,249.285
F,4,2313181,sinestep1.wav,None,1000,21,2563191,338,251.285
F,4,2313181,sinestep1.wav,None,1000,21,2565191,337,253.285
F,4,2313181,vowelstep5.wav,None,1000,21,2567191,317,255.285
F,4,2313181,silence.wav,None,1000,21,2569191,327,257.285
F,4,2313181,sinestep5.wav,None,1000,21,2571191,327,259.285
F,4,2313181,sinestep5.wav,None,1000,21,2573191,325,261.285
F,4,2313181,sinestep5.wav,None,1000,21,2575191,335,263.285
F,4,2313181,sinestep7.wav,None,1000,21,2577191,336,265.285
F,4,2313181,sinestep7_catch.wav,1,347,21,2579191,337,267.285
F,4,2313181,sinestep7_catch.wav,1,61,21,2581191,999,269.285
F,4,2313181,sinestep1.wav,None,1000,21,2583191,1261,271.285
F,4,2313181,vowelstep7.wav,None,1000,21,2585191,325,273.285
F,4,2313181,sinestep3.wav,None,1000,21,2587192,326,275.285
F,4,2313181,sinestep3.wav,None,1000,21,2589192,334,277.285
F,4,2313181,silence.wav,None,1000,21,2591192,335,279.285
F,4,2313181,sinestep5_catch.wav,1,316,21,2593192,344,281.285
F,4,2313181,sinestep5.wav,None,1000,21,2595191,1029,283.285
F,4,2313181,silence.wav,None,1000,21,2597191,324,285.285
F,4,2313181,vowelstep5.wav,None,1000,21,2599191,324,287.285
F,4,2313181,silence.wav,None,1000,21,2601191,324,289.285
F,4,2313181,sinestep1.wav,None,1000,21,2603191,334,291.285
F,4,2313181,sinestep3.wav,None,1000,21,2605192,334,293.285
F,4,2313181,vowelstep3.wav,None,1000,21,2607192,333,295.285
F,4,2313181,silence.wav,None,1000,21,2609192,343,297.285
F,4,2313181,sinestep5.wav,None,1000,21,2611192,324,299.285
F,4,2313181,vowelstep5.wav,None,1000,21,2613192,324,301.285
F,4,2313181,vowelstep5.wav,None,1000,21,2615192,325,303.285
F,4,2313181,vowelstep1.wav,None,1000,21,2617192,334,305.285
F,4,2313181,sinestep3.wav,None,1000,21,2619191,335,307.285
F,4,2313181,silence.wav,None,1000,21,2621191,334,309.285
F,4,2313181,sinestep3_catch.wav,1,253,21,2623192,345,311.285
F,4,2313181,vowelstep1.wav,None,1000,21,2625192,1090,313.285
F,4,2313181,vowelstep7.wav,None,1000,21,2627192,321,315.285
F,4,2313181,vowelstep7.wav,None,1000,21,2629192,324,317.285
F,4,2313181,vowelstep1.wav,None,1000,21,2631192,323,319.285
J,5,2691751,sinestep5_catch.wav,1,613,21,2691759,0,1.285
J,5,2691751,sinestep5.wav,None,1000,21,2693760,735,3.285
J,5,2691751,sinestep3.wav,None,1000,21,2695760,332,5.285
J,5,2691751,sinestep1.wav,None,1000,21,2697760,333,7.285
J,5,2691751,sinestep7.wav,None,1000,21,2699760,332,9.285
J,5,2691751,vowelstep3.wav,None,1000,21,2701760,342,11.285
J,5,2691751,sinestep1.wav,None,1000,21,2703760,341,13.285
J,5,2691751,vowelstep5.wav,None,1000,21,2705760,342,15.285
J,5,2691751,vowelstep3.wav,None,1000,21,2707759,321,17.285
J,5,2691751,vowelstep1.wav,None,1000,21,2709760,332,19.285
J,5,2691751,vowelstep1.wav,None,1000,21,2711760,330,21.285
J,5,2691751,sinestep3.wav,None,1000,21,2713760,330,23.285
J,5,2691751,silence.wav,None,1000,21,2715760,340,25.285
J,5,2691751,vowelstep7.wav,None,1000,21,2717760,339,27.285
J,5,2691751,sinestep3.wav,None,1000,21,2719760,340,29.285
J,5,2691751,sinestep7.wav,None,1000,21,2721760,342,31.285
J,5,2691751,silence.wav,None,1000,21,2723760,330,33.285
J,5,2691751,vowelstep5.wav,None,1000,21,2725760,331,35.285
J,5,2691751,sinestep1.wav,None,1000,21,2727761,330,37.285
J,5,2691751,sinestep1_catch.wav,1,111,21,2729761,338,39.285
J,5,2691751,sinestep7.wav,None,1000,21,2731761,1227,41.285
J,5,2691751,vowelstep7.wav,None,1000,21,2733760,339,43.285
J,5,2691751,sinestep3_catch.wav,1,131,21,2735760,350,45.285
J,5,2691751,vowelstep3.wav,None,1000,21,2737760,1198,47.285
J,5,2691751,vowelstep7.wav,None,1000,21,2739760,329,49.285
J,5,2691751,sinestep1.wav,None,1000,21,2741760,329,51.285
J,5,2691751,vowelstep3.wav,None,1000,21,2743760,339,53.285
J,5,2691751,vowelstep1.wav,None,1000,21,2745761,340,55.285
J,5,2691751,sinestep5.wav,None,1000,21,2747761,338,57.285
J,5,2691751,sinestep5_catch.wav,1,459,21,2749761,337,59.285
J,5,2691751,sinestep5.wav,None,1000,21,2751761,858,61.285
J,5,2691751,vowelstep7.wav,None,1000,21,2753761,328,63.285
J,5,2691751,sinestep7.wav,None,1000,21,2755761,328,65.285
J,5,2691751,vowelstep1.wav,None,1000,21,2757760,337,67.285
J,5,2691751,sinestep7_catch.wav,1,214,21,2759760,337,69.285
J,5,2691751,silence.wav,None,1000,21,2761760,1124,71.285
J,5,2691751,vowelstep5.wav,None,1000,21,2763761,337,73.285
J,5,2691751,sinestep5.wav,None,1000,21,2765761,349,75.285
J,5,2691751,sinestep5.wav,None,1000,21,2767761,328,77.285
J,5,2691751,vowelstep3.wav,None,1000,21,2769761,326,79.285
J,5,2691751,vowelstep5.wav,None,1000,21,2771761,327,81.285
J,5,2691751,sinestep3.wav,None,1000,21,2773761,337,83.285
J,5,2691751,silence.wav,None,1000,21,2775761,336,85.285
J,5,2691751,vowelstep3.wav,None,1000,21,2777761,337,87.285
J,5,2691751,vowelstep7.wav,None,1000,21,2779762,316,89.285
J,5,2691751,silence.wav,None,1000,21,2781761,325,91.285
J,5,2691751,sinestep3.wav,None,1000,21,2783761,325,93.285
J,5,2691751,silence.wav,None,1000,21,2785761,325,95.285
J,5,2691751,sinestep1.wav,None,1000,21,2787761,335,97.285
J,5,2691751,sinestep5_catch.wav,1,172,21,2789761,335,99.285
J,5,2691751,sinestep7.wav,None,1000,21,2791761,1162,101.285
J,5,2691751,sinestep5.wav,None,1000,21,2793761,325,103.285
J,5,2691751,sinestep5.wav,None,1000,21,2795761,325,105.285
J,5,2691751,sinestep3.wav,None,1000,21,2797762,325,107.285
J,5,2691751,sinestep3_catch.wav,1,246,21,2799762,324,109.285
J,5,2691751,sinestep3.wav,None,1000,21,2801762,1088,111.285
J,5,2691751,silence.wav,None,1000,21,2803762,334,113.285
J,5,2691751,sinestep1.wav,None,1000,21,2805761,344,115.285
J,5,2691751,silence.wav,None,1000,21,2807761,344,117.285
J,5,2691751,vowelstep3.wav,None,1000,21,2809761,323,119.285
J,5,2691751,vowelstep5.wav,None,1000,21,2811761,324,121.285
J,5,2691751,vowelstep7.wav,None,1000,21,2813761,323,123.285
J,5,2691751,silence.wav,None,1000,21,2815762,333,125.285
J,5,2691751,sinestep1.wav,None,1000,21,2817762,332,127.285
J,5,2691751,sinestep3.wav,None,1000,21,2819762,332,129.285
J,5,2691751,sinestep7.wav,None,1000,21,2821762,342,131.285
J,5,2691751,silence.wav,None,1000,21,2823762,322,133.285
J,5,2691751,sinestep1.wav,None,1000,21,2825762,323,135.285
J,5,2691751,vowelstep7.wav,None,1000,21,2827762,323,137.285
J,5,2691751,sinestep5.wav,None,1000,21,2829761,334,139.285
J,5,2691751,vowelstep1.wav,None,1000,21,2831761,333,141.285
J,5,2691751,vowelstep7.wav,None,1000,21,2833762,290,143.285
J,5,2691751,vowelstep3.wav,None,1000,21,2835762,342,145.285
J,5,2691751,vowelstep3.wav,None,1000,21,2837762,342,147.285
J,5,2691751,sinestep7.wav,None,1000,21,2839762,337,149.285
J,5,2691751,vowelstep5.wav,None,1000,21,2841762,351,151.285
J,5,2691751,silence.wav,None,1000,21,2843762,321,153.285
J,5,2691751,sinestep1.wav,None,1000,21,2845762,331,155.285
J,5,2691751,sinestep3.wav,None,1000,21,2847762,331,157.285
J,5,2691751,silence.wav,None,1000,21,2849763,340,159.285
J,5,2691751,sinestep1.wav,None,1000,21,2851763,340,161.285
J,5,2691751,vowelstep7.wav,None,1000,21,2853762,340,163.285
J,5,2691751,vowelstep7.wav,None,1000,21,2855762,339,165.285
J,5,2691751,sinestep1_catch.wav,1,270,21,2857762,330,167.285
J,5,2691751,vowelstep1_catch.wav,1,582,21,2859762,1059,169.285
J,5,2691751,vowelstep1.wav,None,1000,21,2861762,747,171.285
J,5,2691751,vowelstep7.wav,None,1000,21,2863762,330,173.285
J,5,2691751,sinestep1.wav,None,1000,21,2865762,339,175.285
J,5,2691751,vowelstep5.wav,None,1000,21,2867763,339,177.285
J,5,2691751,vowelstep5.wav,None,1000,21,2869763,340,179.285
J,5,2691751,sinestep5.wav,None,1000,21,2871763,328,181.285
J,5,2691751,sinestep7.wav,None,1000,21,2873763,329,183.285
J,5,2691751,sinestep7.wav,None,1000,21,2875763,329,185.285
J,5,2691751,sinestep1.wav,None,1000,21,2877763,338,187.285
J,5,2691751,vowelstep1.wav,None,1000,21,2879762,338,189.285
J,5,2691751,silence.wav,None,1000,21,2881762,338,191.285
J,5,2691751,sinestep5.wav,None,1000,21,2883762,338,193.285
J,5,2691751,vowelstep5.wav,None,1000,21,2885763,328,195.285
J,5,2691751,vowelstep1.wav,None,1000,21,2887763,327,197.285
J,5,2691751,vowelstep1.wav,None,1000,21,2889763,328,199.285
J,5,2691751,sinestep3.wav,None,1000,21,2891763,327,201.285
J,5,2691751,sinestep3.wav,None,1000,21,2893763,339,203.285
J,5,2691751,silence.wav,None,1000,21,2895763,338,205.285
J,5,2691751,sinestep5.wav,None,1000,21,2897763,347,207.285
J,5,2691751,vowelstep1.wav,None,1000,21,2899763,347,209.285
J,5,2691751,vowelstep5.wav,None,1000,21,2901763,328,211.285
J,5,2691751,vowelstep3.wav,None,1000,21,2903763,325,213.285
J,5,2691751,vowelstep3.wav,None,1000,21,2905763,327,215.285
J,5,2691751,silence.wav,None,1000,21,2907763,337,217.285
J,5,2691751,sinestep1.wav,None,1000,21,2909763,336,219.285
J,5,2691751,vowelstep3.wav,None,1000,21,2911763,336,221.285
J,5,2691751,sinestep7.wav,None,1000,21,2913763,316,223.285
J,5,2691751,vowelstep7.wav,None,1000,21,2915763,326,225.285
J,5,2691751,silence.wav,None,1000,21,2917763,326,227.285
J,5,2691751,vowelstep5.wav,None,1000,21,2919764,325,229.285
J,5,2691751,silence.wav,None,1000,21,2921764,335,231.285
J,5,2691751,sinestep3.wav,None,1000,21,2923764,334,233.285
J,5,2691751,vowelstep5.wav,None,1000,21,2925764,336,235.285
J,5,2691751,vowelstep3.wav,None,1000,21,2927763,345,237.285
J,5,2691751,vowelstep5.wav,None,1000,21,2929763,326,239.285
J,5,2691751,vowelstep7.wav,None,1000,21,2931763,325,241.285
J,5,2691751,vowelstep1.wav,None,1000,21,2933763,325,243.285
J,5,2691751,sinestep7.wav,None,1000,21,2935763,336,245.285
J,5,2691751,sinestep7.wav,None,1000,21,2937764,334,247.285
J,5,2691751,silence.wav,None,1000,21,2939764,334,249.285
J,5,2691751,vowelstep1.wav,None,1000,21,2941764,344,251.285
J,5,2691751,vowelstep3_catch.wav,1,277,21,2943764,324,253.285
J,5,2691751,vowelstep1.wav,None,1000,21,2945764,1047,255.285
J,5,2691751,vowelstep5_catch.wav,1,669,21,2947764,324,257.285
J,5,2691751,silence.wav,None,1000,21,2949764,664,259.285
J,5,2691751,sinestep5.wav,None,1000,21,2951763,334,261.285
J,5,2691751,vowelstep1.wav,None,1000,21,2953763,334,263.285
J,5,2691751,sinestep5.wav,None,1000,21,2955764,343,265.285
J,5,2691751,vowelstep3.wav,None,1000,21,2957764,323,267.285
J,5,2691751,sinestep5.wav,None,1000,21,2959764,323,269.285
J,5,2691751,sinestep7.wav,None,1000,21,2961764,324,271.285
J,5,2691751,silence.wav,None,1000,21,2963764,333,273.285
J,5,2691751,vowelstep7_catch.wav,1,218,21,2965764,333,275.285
J,5,2691751,sinestep3.wav,None,1000,21,2967764,1114,277.285
J,5,2691751,vowelstep5.wav,None,1000,21,2969764,343,279.285
J,5,2691751,silence.wav,None,1000,21,2971765,312,281.285
J,5,2691751,silence.wav,None,1000,21,2973765,321,283.285
J,5,2691751,silence.wav,None,1000,21,2975764,323,285.285
J,5,2691751,vowelstep7.wav,None,1000,21,2977764,333,287.285
J,5,2691751,sinestep3.wav,None,1000,21,2979764,332,289.285
J,5,2691751,vowelstep5_catch.wav,1,312,21,2981764,332,291.285
J,5,2691751,silence.wav,None,1000,21,2983764,1031,293.285
J,5,2691751,sinestep7.wav,None,1000,21,2985764,313,295.285
J,5,2691751,vowelstep1.wav,None,1000,21,2987764,323,297.285
J,5,2691751,silence.wav,None,1000,21,2989765,322,299.285
J,5,2691751,sinestep1.wav,None,1000,21,2991765,332,301.285
J,5,2691751,sinestep5.wav,None,1000,21,2993765,332,303.285
J,5,2691751,vowelstep5.wav,None,1000,21,2995765,332,305.285
J,5,2691751,vowelstep3.wav,None,1000,21,2997765,332,307.285
J,5,2691751,sinestep7.wav,None,1000,21,2999765,313,309.285
J,5,2691751,vowelstep7.wav,None,1000,21,3001764,322,311.285
J,5,2691751,vowelstep3_catch.wav,1,351,21,3003764,321,313.285
J,5,2691751,vowelstep1_catch.wav,1,257,21,3005764,969,315.285
J,5,2691751,sinestep3.wav,None,1000,21,3007765,1074,317.285
J,5,2691751,sinestep1.wav,None,1000,21,3009765,331,319.285
E,6,3065166,vowelstep7.wav,None,1000,21,3065183,0,1.285
E,6,3065166,sinestep3.wav,None,1000,21,3067182,319,3.285
E,6,3065166,sinestep5.wav,None,1000,21,3069182,331,5.285
E,6,3065166,sinestep1.wav,None,1000,21,3071182,332,7.285
E,6,3065166,sinestep5.wav,None,1000,21,3073182,340,9.285
E,6,3065166,silence.wav,None,1000,21,3075182,342,11.285
E,6,3065166,vowelstep1.wav,None,1000,21,3077183,318,13.285
E,6,3065166,vowelstep7.wav,None,1000,21,3079183,317,15.285
E,6,3065166,vowelstep1.wav,None,1000,21,3081183,319,17.285
E,6,3065166,sinestep1_catch.wav,1,83,21,3083183,330,19.285
E,6,3065166,vowelstep5.wav,None,1000,21,3085183,1246,21.285
E,6,3065166,sinestep5.wav,None,1000,21,3087183,329,23.285
E,6,3065166,vowelstep5.wav,None,1000,21,3089182,337,25.285
E,6,3065166,vowelstep3.wav,None,1000,21,3091182,310,27.285
E,6,3065166,sinestep1.wav,None,1000,21,3093182,320,29.285
E,6,3065166,vowelstep5.wav,None,1000,21,3095183,321,31.285
E,6,3065166,silence.wav,None,1000,21,3097183,329,33.285
E,6,3065166,silence.wav,None,1000,21,3099183,328,35.285
E,6,3065166,sinestep3.wav,None,1000,21,3101183,329,37.285
E,6,3065166,sinestep3.wav,None,1000,21,3103183,329,39.285
E,6,3065166,sinestep3.wav,None,1000,21,3105183,339,41.285
E,6,3065166,sinestep1.wav,None,1000,21,3107183,318,43.285
E,6,3065166,vowelstep1.wav,None,1000,21,3109183,319,45.285
E,6,3065166,sinestep1.wav,None,1000,21,3111183,319,47.285
E,6,3065166,vowelstep7.wav,None,1000,21,3113184,329,49.285
E,6,3065166,vowelstep5.wav,None,1000,21,3115183,328,51.285
E,6,3065166,sinestep7.wav,None,1000,21,3117183,337,53.285
E,6,3065166,sinestep1.wav,None,1000,21,3119183,309,55.285
E,6,3065166,vowelstep5.wav,None,1000,21,3121183,317,57.285
E,6,3065166,sinestep3.wav,None,1000,21,3123183,316,59.285
E,6,3065166,vowelstep1.wav,None,1000,21,3125183,328,61.285
E,6,3065166,vowelstep5.wav,None,1000,21,3127183,327,63.285
E,6,3065166,vowelstep3.wav,None,1000,21,3129184,327,65.285
E,6,3065166,sinestep1.wav,None,1000,21,3131184,325,67.285
E,6,3065166,vowelstep3.wav,None,1000,21,3133184,315,69.285
E,6,3065166,silence.wav,None,1000,21,3135184,316,71.285
E,6,3065166,vowelstep3.wav,None,1000,21,3137184,316,73.285
E,6,3065166,sinestep3_catch.wav,1,181,21,3139183,316,75.285
E,6,3065166,sinestep3.wav,None,1000,21,3141183,1145,77.285
E,6,3065166,vowelstep3.wav,None,1000,21,3143183,325,79.285
E,6,3065166,vowelstep7.wav,None,1000,21,3145183,323,81.285
E,6,3065166,silence.wav,None,1000,21,3147184,336,83.285
E,6,3065166,sinestep3.wav,None,1000,21,3149184,310,85.285
E,6,3065166,silence.wav,None,1000,21,3151184,314,87.285
E,6,3065166,sinestep1.wav,None,1000,21,3153184,324,89.285
E,6,3065166,sinestep5_catch.wav,1,124,21,3155184,324,91.285
E,6,3065166,vowelstep3.wav,None,1000,21,3157184,1200,93.285
E,6,3065166,sinestep5.wav,None,1000,21,3159184,324,95.285
E,6,3065166,vowelstep7.wav,None,1000,21,3161184,309,97.285
E,6,3065166,sinestep1.wav,None,1000,21,3163183,318,99.285
E,6,3065166,sinestep5.wav,None,1000,21,3165184,318,101.285
E,6,3065166,sinestep5.wav,None,1000,21,3167184,319,103.285
E,6,3065166,vowelstep7.wav,None,1000,21,3169184,329,105.285
E,6,3065166,vowelstep3.wav,None,1000,21,3171184,329,107.285
E,6,3065166,vowelstep7.wav,None,1000,21,3173184,329,109.285
E,6,3065166,sinestep5.wav,None,1000,21,3175184,340,111.285
E,6,3065166,vowelstep3.wav,None,1000,21,3177184,319,113.285
E,6,3065166,vowelstep7.wav,None,1000,21,3179184,319,115.285
E,6,3065166,sinestep3.wav,None,1000,21,3181184,320,117.285
E,6,3065166,vowelstep7.wav,None,1000,21,3183185,328,119.285
E,6,3065166,silence.wav,None,1000,21,3185185,328,121.285
E,6,3065166,silence.wav,None,1000,21,3187184,328,123.285
E,6,3065166,sinestep7.wav,None,1000,21,3189184,338,125.285
E,6,3065166,sinestep7_catch.wav,1,226,21,3191184,319,127.285
E,6,3065166,sinestep7.wav,None,1000,21,3193184,1091,129.285
E,6,3065166,silence.wav,None,1000,21,3195184,318,131.285
E,6,3065166,sinestep7_catch.wav,1,233,21,3197184,328,133.285
E,6,3065166,sinestep7.wav,None,1000,21,3199185,1094,135.285
E,6,3065166,sinestep5_catch.wav,1,107,21,3201185,327,137.285
E,6,3065166,sinestep1.wav,None,1000,21,3203185,1230,139.285
E,6,3065166,sinestep1.wav,None,1000,21,3205185,317,141.285
E,6,3065166,sinestep1.wav,None,1000,21,3207185,316,143.285
E,6,3065166,sinestep3.wav,None,1000,21,3209185,317,145.285
E,6,3065166,vowelstep5.wav,None,1000,21,3211184,327,147.285
E,6,3065166,silence.wav,None,1000,21,3213184,327,149.285
E,6,3065166,sinestep3_catch.wav,1,366,21,3215184,327,151.285
E,6,3065166,silence.wav,None,1000,21,3217185,970,153.285
E,6,3065166,sinestep7.wav,None,1000,21,3219168,316,155.285
E,6,3065166,sinestep5.wav,None,1000,21,3221185,336,157.285
E,6,3065166,silence.wav,None,1000,21,3223185,316,159.285
E,6,3065166,vowelstep5.wav,None,1000,21,3225185,327,161.285
E,6,3065166,vowelstep1.wav,None,1000,21,3227185,326,163.285
E,6,3065166,vowelstep3.wav,None,1000,21,3229185,325,165.285
E,6,3065166,sinestep5.wav,None,1000,21,3231185,336,167.285
E,6,3065166,sinestep7.wav,None,1000,21,3233185,316,169.285
E,6,3065166,vowelstep1.wav,None,1000,21,3235169,316,171.285
E,6,3065166,vowelstep7.wav,None,1000,21,3237169,345,173.285
E,6,3065166,sinestep3.wav,None,1000,21,3239185,345,175.285
E,6,3065166,silence.wav,None,1000,21,3241185,325,177.285
E,6,3065166,sinestep1_catch.wav,1,205,21,3243185,325,179.285
E,6,3065166,sinestep7.wav,None,1000,21,3245185,1119,181.285
E,6,3065166,vowelstep1.wav,None,1000,21,3247185,335,183.285
E,6,3065166,sinestep5.wav,None,1000,21,3249185,335,185.285
E,6,3065166,sinestep5.wav,None,1000,21,3251185,345,187.285
E,6,3065166,vowelstep1.wav,None,1000,21,3253169,314,189.285
E,6,3065166,sinestep7.wav,None,1000,21,3255169,344,191.285
E,6,3065166,sinestep3.wav,None,1000,21,3257186,344,193.285
E,6,3065166,sinestep7.wav,None,1000,21,3259186,325,195.285
E,6,3065166,silence.wav,None,1000,21,3261185,333,197.285
E,6,3065166,vowelstep1.wav,None,1000,21,3263185,334,199.285
E,6,3065166,sinestep1.wav,None,1000,21,3265185,334,201.285
E,6,3065166,vowelstep1.wav,None,1000,21,3267169,344,203.285
E,6,3065166,vowelstep1.wav,None,1000,21,3269169,344,205.285
E,6,3065166,vowelstep1_catch.wav,1,371,21,3271169,342,207.285
E,6,3065166,vowelstep1.wav,None,1000,21,3273169,951,209.285
E,6,3065166,vowelstep1.wav,None,1000,21,3275169,333,211.285
E,6,3065166,silence.wav,None,1000,21,3277186,333,213.285
E,6,3065166,sinestep7.wav,None,1000,21,3279186,344,215.285
E,6,3065166,vowelstep7.wav,None,1000,21,3281186,313,217.285
E,6,3065166,vowelstep3_catch.wav,1,260,21,3283169,323,219.285
E,6,3065166,vowelstep5.wav,None,1000,21,3285169,1081,221.285
E,6,3065166,sinestep3.wav,None,1000,21,3287170,342,223.285
E,6,3065166,silence.wav,None,1000,21,3289170,332,225.285
E,6,3065166,sinestep1.wav,None,1000,21,3291170,332,227.285
E,6,3065166,sinestep5.wav,None,1000,21,3293169,332,229.285
E,6,3065166,sinestep5.wav,None,1000,21,3295186,342,231.285
E,6,3065166,sinestep3.wav,None,1000,21,3297186,322,233.285
E,6,3065166,sinestep5.wav,None,1000,21,3299169,322,235.285
E,6,3065166,vowelstep3.wav,None,1000,21,3301169,351,237.285
E,6,3065166,sinestep7.wav,None,1000,21,3303169,332,239.285
E,6,3065166,sinestep7.wav,None,1000,21,3305170,332,241.285
E,6,3065166,silence.wav,None,1000,21,3307170,331,243.285
E,6,3065166,sinestep3.wav,None,1000,21,3309170,341,245.285
E,6,3065166,sinestep3.wav,None,1000,21,3311170,341,247.285
E,6,3065166,vowelstep3.wav,None,1000,21,3313186,340,249.285
E,6,3065166,silence.wav,None,1000,21,3315170,321,251.285
E,6,3065166,sinestep7.wav,None,1000,21,3317169,330,253.285
E,6,3065166,silence.wav,None,1000,21,3319169,350,255.285
E,6,3065166,vowelstep7.wav,None,1000,21,3321169,360,257.285
E,6,3065166,vowelstep3.wav,None,1000,21,3323170,360,259.285
E,6,3065166,silence.wav,None,1000,21,3325170,340,261.285
E,6,3065166,vowelstep3.wav,None,1000,21,3327170,339,263.285
E,6,3065166,vowelstep1.wav,None,1000,21,3329170,351,265.285
E,6,3065166,vowelstep5.wav,None,1000,21,3331170,350,267.285
E,6,3065166,silence.wav,None,1000,21,3333170,349,269.285
E,6,3065166,vowelstep3.wav,None,1000,21,3335170,359,271.285
E,6,3065166,sinestep1.wav,None,1000,21,3337170,329,273.285
E,6,3065166,vowelstep5_catch.wav,1,56,21,3339171,339,275.285
E,6,3065166,sinestep7.wav,None,1000,21,3341170,1282,277.285
E,6,3065166,sinestep7.wav,None,1000,21,3343170,348,279.285
E,6,3065166,vowelstep7.wav,None,1000,21,3345170,348,281.285
E,6,3065166,silence.wav,None,1000,21,3347170,349,283.285
E,6,3065166,sinestep5.wav,None,1000,21,3349170,358,285.285
E,6,3065166,silence.wav,None,1000,21,3351170,339,287.285
E,6,3065166,silence.wav,None,1000,21,3353170,340,289.285
E,6,3065166,vowelstep5.wav,None,1000,21,3355170,338,291.285
E,6,3065166,vowelstep5.wav,None,1000,21,3357171,348,293.285
E,6,3065166,silence.wav,None,1000,21,3359171,348,295.285
E,6,3065166,vowelstep5.wav,None,1000,21,3361171,349,297.285
E,6,3065166,vowelstep7_catch.wav,1,270,21,3363171,357,299.285
E,6,3065166,vowelstep7_catch.wav,1,281,21,3365170,1066,301.285
E,6,3065166,vowelstep5.wav,None,1000,21,3367170,1055,303.285
E,6,3065166,sinestep1.wav,None,1000,21,3369170,337,305.285
E,6,3065166,vowelstep3.wav,None,1000,21,3371170,348,307.285
E,6,3065166,vowelstep5_catch.wav,1,200,21,3373170,347,309.285
E,6,3065166,vowelstep7.wav,None,1000,21,3375171,1144,311.285
E,6,3065166,vowelstep5.wav,None,1000,21,3377171,346,313.285
E,6,3065166,vowelstep7.wav,None,1000,21,3379171,336,315.285
E,6,3065166,vowelstep1.wav,None,1000,21,3381171,337,317.285
E,6,3065166,vowelstep3_catch.wav,1,803,21,3383171,336,319.285
G,7,3445449,vowelstep3.wav,None,1000,21,3445456,0,1.285
G,7,3445449,vowelstep3.wav,None,1000,21,3447455,345,3.285
G,7,3445449,vowelstep7.wav,None,1000,21,3449455,301,5.285
G,7,3445449,vowelstep3.wav,None,1000,21,3451455,335,7.285
G,7,3445449,sinestep5.wav,None,1000,21,3453455,335,9.285
G,7,3445449,sinestep1_catch.wav,1,230,21,3455455,346,11.285
G,7,3445449,silence.wav,None,1000,21,3457455,1114,13.285
G,7,3445449,silence.wav,None,1000,21,3459455,345,15.285
G,7,3445449,vowelstep7.wav,None,1000,21,3461456,345,17.285
G,7,3445449,vowelstep1.wav,None,1000,21,3463456,354,19.285
G,7,3445449,silence.wav,None,1000,21,3465456,333,21.285
G,7,3445449,sinestep1.wav,None,1000,21,3467456,335,23.285
G,7,3445449,vowelstep7.wav,None,1000,21,3469456,334,25.285
G,7,3445449,sinestep5.wav,None,1000,21,3471455,344,27.285
G,7,3445449,sinestep5.wav,None,1000,21,3473455,344,29.285
G,7,3445449,sinestep3.wav,None,1000,21,3475455,344,31.285
G,7,3445449,vowelstep3.wav,None,1000,21,3477455,353,33.285
G,7,3445449,silence.wav,None,1000,21,3479456,334,35.285
G,7,3445449,vowelstep1.wav,None,1000,21,3481456,332,37.285
G,7,3445449,sinestep7.wav,None,1000,21,3483456,333,39.285
G,7,3445449,vowelstep5.wav,None,1000,21,3485456,333,41.285
G,7,3445449,vowelstep3.wav,None,1000,21,3487456,343,43.285
G,7,3445449,sinestep1.wav,None,1000,21,3489456,342,45.285
G,7,3445449,sinestep7.wav,None,1000,21,3491456,322,47.285
G,7,3445449,sinestep1.wav,None,1000,21,3493456,332,49.285
G,7,3445449,sinestep5.wav,None,1000,21,3495455,333,51.285
G,7,3445449,vowelstep1.wav,None,1000,21,3497456,332,53.285
G,7,3445449,silence.wav,None,1000,21,3499456,342,55.285
G,7,3445449,sinestep5.wav,None,1000,21,3501456,342,57.285
G,7,3445449,vowelstep1.wav,None,1000,21,3503456,340,59.285
G,7,3445449,vowelstep3.wav,None,1000,21,3505456,342,61.285
G,7,3445449,sinestep3.wav,None,1000,21,3507456,295,63.285
G,7,3445449,sinestep1.wav,None,1000,21,3509456,331,65.285
G,7,3445449,vowelstep5.wav,None,1000,21,3511456,331,67.285
G,7,3445449,vowelstep3.wav,None,1000,21,3513456,331,69.285
G,7,3445449,vowelstep5.wav,None,1000,21,3515457,341,71.285
G,7,3445449,vowelstep7.wav,None,1000,21,3517457,340,73.285
G,7,3445449,vowelstep5.wav,None,1000,21,3519456,351,75.285
G,7,3445449,vowelstep5.wav,None,1000,21,3521456,321,77.285
G,7,3445449,sinestep3.wav,None,1000,21,3523456,330,79.285
G,7,3445449,sinestep3_catch.wav,1,256,21,3525456,330,81.285
G,7,3445449,sinestep5_catch.wav,1,91,21,3527456,1074,83.285
G,7,3445449,sinestep7.wav,None,1000,21,3529456,1249,85.285
G,7,3445449,sinestep7_catch.wav,1,178,21,3531457,341,87.285
G,7,3445449,sinestep7.wav,None,1000,21,3533457,1170,89.285
G,7,3445449,vowelstep1.wav,None,1000,21,3535457,350,91.285
G,7,3445449,vowelstep7.wav,None,1000,21,3537457,329,93.285
G,7,3445449,vowelstep3.wav,None,1000,21,3539457,328,95.285
G,7,3445449,sinestep3.wav,None,1000,21,3541457,329,97.285
G,7,3445449,sinestep1.wav,None,1000,21,3543456,339,99.285
G,7,3445449,sinestep1.wav,None,1000,21,3545456,339,101.285
G,7,3445449,sinestep5.wav,None,1000,21,3547456,339,103.285
G,7,3445449,vowelstep7.wav,None,1000,21,3549457,349,105.285
G,7,3445449,silence.wav,None,1000,21,3551457,328,107.285
G,7,3445449,sinestep3.wav,None,1000,21,3553457,328,109.285
G,7,3445449,vowelstep1.wav,None,1000,21,3555457,328,111.285
G,7,3445449,sinestep3.wav,None,1000,21,3557457,338,113.285
G,7,3445449,sinestep3.wav,None,1000,21,3559457,338,115.285
G,7,3445449,sinestep7.wav,None,1000,21,3561457,348,117.285
G,7,3445449,silence.wav,None,1000,21,3563457,348,119.285
G,7,3445449,vowelstep5.wav,None,1000,21,3565457,329,121.285
G,7,3445449,sinestep1_catch.wav,1,353,21,3567458,328,123.285
G,7,3445449,silence.wav,None,1000,21,3569457,983,125.285
G,7,3445449,sinestep5.wav,None,1000,21,3571457,337,127.285
G,7,3445449,sinestep7.wav,None,1000,21,3573457,337,129.285
G,7,3445449,sinestep3.wav,None,1000,21,3575457,337,131.285
G,7,3445449,sinestep3.wav,None,1000,21,3577457,347,133.285
G,7,3445449,vowelstep5.wav,None,1000,21,3579457,324,135.285
G,7,3445449,sinestep3.wav,None,1000,21,3581457,325,137.285
G,7,3445449,sinestep3_catch.wav,1,116,21,3583457,327,139.285
G,7,3445449,vowelstep1.wav,None,1000,21,3585458,1219,141.285
G,7,3445449,vowelstep1.wav,None,1000,21,3587458,336,143.285
G,7,3445449,sinestep5.wav,None,1000,21,3589458,336,145.285
G,7,3445449,silence.wav,None,1000,21,3591458,316,147.285
G,7,3445449,sinestep3.wav,None,1000,21,3593457,316,149.285
G,7,3445449,silence.wav,None,1000,21,3595457,326,151.285
G,7,3445449,vowelstep3.wav,None,1000,21,3597457,336,153.285
G,7,3445449,sinestep5.wav,None,1000,21,3599457,336,155.285
G,7,3445449,vowelstep7.wav,None,1000,21,3601458,336,157.285
G,7,3445449,silence.wav,None,1000,21,3603458,335,159.285
G,7,3445449,sinestep5_catch.wav,1,155,21,3605458,345,161.285
G,7,3445449,vowelstep5.wav,None,1000,21,3607458,1170,163.285
G,7,3445449,silence.wav,None,1000,21,3609458,325,165.285
G,7,3445449,vowelstep7.wav,None,1000,21,3611458,325,167.285
G,7,3445449,vowelstep1.wav,None,1000,21,3613458,335,169.285
G,7,3445449,vowelstep1.wav,None,1000,21,3615458,336,171.285
G,7,3445449,vowelstep1.wav,None,1000,21,3617457,335,173.285
G,7,3445449,sinestep5.wav,None,1000,21,3619458,345,175.285
G,7,3445449,vowelstep3.wav,None,1000,21,3621458,324,177.285
G,7,3445449,sinestep1.wav,None,1000,21,3623458,324,179.285
G,7,3445449,vowelstep1.wav,None,1000,21,3625458,324,181.285
G,7,3445449,sinestep1.wav,None,1000,21,3627458,324,183.285
G,7,3445449,sinestep7.wav,None,1000,21,3629458,334,185.285
G,7,3445449,sinestep7.wav,None,1000,21,3631458,334,187.285
G,7,3445449,sinestep3.wav,None,1000,21,3633458,344,189.285
G,7,3445449,sinestep5.wav,None,1000,21,3635458,324,191.285
G,7,3445449,silence.wav,None,1000,21,3637459,323,193.285
G,7,3445449,sinestep7_catch.wav,1,112,21,3639459,323,195.285
G,7,3445449,vowelstep7_catch.wav,1,199,21,3641458,1220,197.285
G,7,3445449,sinestep7.wav,None,1000,21,3643458,1134,199.285
G,7,3445449,silence.wav,None,1000,21,3645458,332,201.285
G,7,3445449,sinestep7.wav,None,1000,21,3647458,333,203.285
G,7,3445449,sinestep3.wav,None,1000,21,3649458,343,205.285
G,7,3445449,vowelstep7.wav,None,1000,21,3651458,343,207.285
G,7,3445449,sinestep1.wav,None,1000,21,3653458,353,209.285
G,7,3445449,silence.wav,None,1000,21,3655459,322,211.285
G,7,3445449,silence.wav,None,1000,21,3657459,331,213.285
G,7,3445449,vowelstep7.wav,None,1000,21,3659459,332,215.285
G,7,3445449,vowelstep5.wav,None,1000,21,3661459,342,217.285
G,7,3445449,sinestep7.wav,None,1000,21,3663459,343,219.285
G,7,3445449,vowelstep5.wav,None,1000,21,3665458,342,221.285
G,7,3445449,vowelstep5_catch.wav,1,121,21,3667458,342,223.285
G,7,3445449,vowelstep7.wav,None,1000,21,3669458,1201,225.285
G,7,3445449,silence.wav,None,1000,21,3671459,331,227.285
G,7,3445449,silence.wav,None,1000,21,3673459,332,229.285
G,7,3445449,sinestep1.wav,None,1000,21,3675459,331,231.285
G,7,3445449,silence.wav,None,1000,21,3677459,340,233.285
G,7,3445449,vowelstep7.wav,None,1000,21,3679459,342,235.285
G,7,3445449,vowelstep5.wav,None,1000,21,3681459,340,237.285
G,7,3445449,vowelstep3.wav,None,1000,21,3683459,352,239.285
G,7,3445449,vowelstep3_catch.wav,1,89,21,3685459,331,241.285
G,7,3445449,sinestep1.wav,None,1000,21,3687459,1240,243.285
G,7,3445449,silence.wav,None,1000,21,3689459,331,245.285
G,7,3445449,sinestep7.wav,None,1000,21,3691459,340,247.285
G,7,3445449,sinestep1.wav,None,1000,21,3693459,340,249.285
G,7,3445449,sinestep3.wav,None,1000,21,3695459,340,251.285
G,7,3445449,vowelstep3.wav,None,1000,21,3697459,316,253.285
G,7,3445449,vowelstep1_catch.wav,1,540,21,3699459,330,255.285
G,7,3445449,sinestep7.wav,None,1000,21,3701459,790,257.285
G,7,3445449,silence.wav,None,1000,21,3703459,330,259.285
G,7,3445449,sinestep5.wav,None,1000,21,3705459,340,261.285
G,7,3445449,sinestep5.wav,None,1000,21,3707460,339,263.285
G,7,3445449,vowelstep5.wav,None,1000,21,3709460,339,265.285
G,7,3445449,sinestep5.wav,None,1000,21,3711460,349,267.285
G,7,3445449,sinestep7.wav,None,1000,21,3713460,329,269.285
G,7,3445449,silence.wav,None,1000,21,3715459,329,271.285
G,7,3445449,vowelstep7_catch.wav,1,101,21,3717459,328,273.285
G,7,3445449,vowelstep5.wav,None,1000,21,3719459,1236,275.285
G,7,3445449,silence.wav,None,1000,21,3721459,338,277.285
G,7,3445449,sinestep3.wav,None,1000,21,3723459,338,279.285
G,7,3445449,vowelstep5.wav,None,1000,21,3725460,348,281.285
G,7,3445449,silence.wav,None,1000,21,3727460,328,283.285
G,7,3445449,vowelstep1.wav,None,1000,21,3729460,328,285.285
G,7,3445449,sinestep1.wav,None,1000,21,3731460,328,287.285
G,7,3445449,vowelstep3.wav,None,1000,21,3733460,338,289.285
G,7,3445449,vowelstep7.wav,None,1000,21,3735460,338,291.285
G,7,3445449,vowelstep7.wav,None,1000,21,3737460,338,293.285
G,7,3445449,sinestep1.wav,None,1000,21,3739459,338,295.285
G,7,3445449,vowelstep5.wav,None,1000,21,3741460,327,297.285
G,7,3445449,silence.wav,None,1000,21,3743460,326,299.285
G,7,3445449,sinestep1.wav,None,1000,21,3745460,326,301.285
G,7,3445449,vowelstep7.wav,None,1000,21,3747460,337,303.285
G,7,3445449,vowelstep5_catch.wav,1,499,21,3749460,336,305.285
G,7,3445449,vowelstep3.wav,None,1000,21,3751460,837,307.285
G,7,3445449,vowelstep3_catch.wav,1,102,21,3753460,347,309.285
G,7,3445449,sinestep7.wav,None,1000,21,3755460,1214,311.285
G,7,3445449,sinestep5.wav,None,1000,21,3757460,326,313.285
G,7,3445449,vowelstep1.wav,None,1000,21,3759461,327,315.285
G,7,3445449,vowelstep3.wav,None,1000,21,3761461,336,317.285
G,7,3445449,vowelstep1.wav,None,1000,21,3763460,335,319.285
A,8,3819049,sinestep5_catch.wav,1,502,21,3819061,0,1.285
A,8,3819049,vowelstep1.wav,None,1000,21,3821061,820,3.285
A,8,3819049,vowelstep3.wav,None,1000,21,3823061,333,5.285
A,8,3819049,sinestep1.wav,None,1000,21,3825061,333,7.285
A,8,3819049,sinestep5_catch.wav,1,156,21,3827061,333,9.285
A,8,3819049,sinestep7.wav,None,1000,21,3829062,1156,11.285
A,8,3819049,sinestep3.wav,None,1000,21,3831062,322,13.285
A,8,3819049,silence.wav,None,1000,21,3833062,322,15.285
A,8,3819049,vowelstep7.wav,None,1000,21,3835062,322,17.285
A,8,3819049,sinestep7.wav,None,1000,21,3837061,332,19.285
A,8,3819049,vowelstep5_catch.wav,1,289,21,3839061,333,21.285
A,8,3819049,sinestep7.wav,None,1000,21,3841061,1042,23.285
A,8,3819049,sinestep3.wav,None,1000,21,3843061,322,25.285
A,8,3819049,silence.wav,None,1000,21,3845061,323,27.285
A,8,3819049,sinestep3.wav,None,1000,21,3847062,322,29.285
A,8,3819049,sinestep5_catch.wav,1,99,21,3849062,321,31.285
A,8,3819049,sinestep1.wav,None,1000,21,3851062,1231,33.285
A,8,3819049,sinestep1.wav,None,1000,21,3853062,332,35.285
A,8,3819049,sinestep5.wav,None,1000,21,3855062,331,37.285
A,8,3819049,vowelstep3.wav,None,1000,21,3857062,311,39.285
A,8,3819049,vowelstep5.wav,None,1000,21,3859062,320,41.285
A,8,3819049,vowelstep3.wav,None,1000,21,3861061,321,43.285
A,8,3819049,vowelstep1.wav,None,1000,21,3863061,318,45.285
A,8,3819049,vowelstep3.wav,None,1000,21,3865062,330,47.285
A,8,3819049,sinestep3.wav,None,1000,21,3867062,330,49.285
A,8,3819049,sinestep7.wav,None,1000,21,3869062,330,51.285
A,8,3819049,sinestep5.wav,None,1000,21,3871062,339,53.285
A,8,3819049,vowelstep7_catch.wav,1,182,21,3873062,321,55.285
A,8,3819049,silence.wav,None,1000,21,3875062,1136,57.285
A,8,3819049,vowelstep3.wav,None,1000,21,3877062,320,59.285
A,8,3819049,vowelstep1.wav,None,1000,21,3879062,330,61.285
A,8,3819049,silence.wav,None,1000,21,3881063,330,63.285
A,8,3819049,sinestep3.wav,None,1000,21,3883063,329,65.285
A,8,3819049,sinestep7.wav,None,1000,21,3885062,339,67.285
A,8,3819049,sinestep5.wav,None,1000,21,3887062,338,69.285
A,8,3819049,sinestep5.wav,None,1000,21,3889062,339,71.285
A,8,3819049,sinestep7.wav,None,1000,21,3891062,348,73.285
A,8,3819049,sinestep1.wav,None,1000,21,3893062,329,75.285
A,8,3819049,sinestep5.wav,None,1000,21,3895062,329,77.285
A,8,3819049,vowelstep1.wav,None,1000,21,3897062,328,79.285
A,8,3819049,sinestep1.wav,None,1000,21,3899063,338,81.285
A,8,3819049,vowelstep5.wav,None,1000,21,3901063,337,83.285
A,8,3819049,sinestep1.wav,None,1000,21,3903063,337,85.285
A,8,3819049,silence.wav,None,1000,21,3905063,347,87.285
A,8,3819049,vowelstep1.wav,None,1000,21,3907063,328,89.285
A,8,3819049,sinestep3.wav,None,1000,21,3909062,328,91.285
A,8,3819049,vowelstep5.wav,None,1000,21,3911062,328,93.285
A,8,3819049,vowelstep5.wav,None,1000,21,3913062,337,95.285
A,8,3819049,vowelstep5.wav,None,1000,21,3915062,337,97.285
A,8,3819049,vowelstep7.wav,None,1000,21,3917063,338,99.285
A,8,3819049,vowelstep3.wav,None,1000,21,3919063,347,101.285
A,8,3819049,sinestep1.wav,None,1000,21,3921063,326,103.285
A,8,3819049,sinestep1.wav,None,1000,21,3923063,327,105.285
A,8,3819049,vowelstep7.wav,None,1000,21,3925063,327,107.285
A,8,3819049,vowelstep1.wav,None,1000,21,3927063,337,109.285
A,8,3819049,vowelstep7.wav,None,1000,21,3929063,337,111.285
A,8,3819049,silence.wav,None,1000,21,3931063,336,113.285
A,8,3819049,sinestep1.wav,None,1000,21,3933062,336,115.285
A,8,3819049,vowelstep1.wav,None,1000,21,3935063,325,117.285
A,8,3819049,silence.wav,None,1000,21,3937063,325,119.285
A,8,3819049,vowelstep1.wav,None,1000,21,3939063,325,121.285
A,8,3819049,vowelstep3.wav,None,1000,21,3941063,326,123.285
A,8,3819049,vowelstep1.wav,None,1000,21,3943063,336,125.285
A,8,3819049,sinestep7.wav,None,1000,21,3945063,336,127.285
A,8,3819049,silence.wav,None,1000,21,3947063,345,129.285
A,8,3819049,vowelstep1.wav,None,1000,21,3949063,326,131.285
A,8,3819049,silence.wav,None,1000,21,3951064,325,133.285
A,8,3819049,sinestep7.wav,None,1000,21,3953064,324,135.285
A,8,3819049,vowelstep5.wav,None,1000,21,3955064,334,137.285
A,8,3819049,sinestep7.wav,None,1000,21,3957064,335,139.285
A,8,3819049,sinestep3.wav,None,1000,21,3959063,335,141.285
A,8,3819049,vowelstep5.wav,None,1000,21,3961063,334,143.285
A,8,3819049,silence.wav,None,1000,21,3963063,324,145.285
A,8,3819049,sinestep3.wav,None,1000,21,3965063,324,147.285
A,8,3819049,sinestep5.wav,None,1000,21,3967063,324,149.285
A,8,3819049,sinestep3.wav,None,1000,21,3969064,324,151.285
A,8,3819049,vowelstep3.wav,None,1000,21,3971064,333,153.285
A,8,3819049,sinestep3.wav,None,1000,21,3973064,334,155.285
A,8,3819049,vowelstep7_catch.wav,1,104,21,3975064,334,157.285
A,8,3819049,vowelstep7.wav,None,1000,21,3977064,1239,159.285
A,8,3819049,vowelstep5.wav,None,1000,21,3979064,323,161.285
A,8,3819049,sinestep5.wav,None,1000,21,3981064,324,163.285
A,8,3819049,silence.wav,None,1000,21,3983063,323,165.285
A,8,3819049,sinestep5.wav,None,1000,21,3985063,335,167.285
A,8,3819049,vowelstep5_catch.wav,1,417,21,3987064,334,169.285
A,8,3819049,silence.wav,None,1000,21,3989064,915,171.285
A,8,3819049,sinestep7.wav,None,1000,21,3991064,342,173.285
A,8,3819049,sinestep5.wav,None,1000,21,3993064,322,175.285
A,8,3819049,sinestep7.wav,None,1000,21,3995064,322,177.285
A,8,3819049,vowelstep3.wav,None,1000,21,3997064,322,179.285
A,8,3819049,sinestep5.wav,None,1000,21,3999064,332,181.285
A,8,3819049,vowelstep1.wav,None,1000,21,4001064,332,183.285
A,8,3819049,vowelstep5.wav,None,1000,21,4003064,332,185.285
A,8,3819049,sinestep5.wav,None,1000,21,4005065,342,187.285
A,8,3819049,vowelstep1.wav,None,1000,21,4007064,321,189.285
A,8,3819049,silence.wav,None,1000,21,4009064,321,191.285
A,8,3819049,sinestep1.wav,None,1000,21,4011064,321,193.285
A,8,3819049,vowelstep5.wav,None,1000,21,4013064,331,195.285
A,8,3819049,sinestep3.wav,None,1000,21,4015064,330,197.285
A,8,3819049,silence.wav,None,1000,21,4017064,331,199.285
A,8,3819049,vowelstep3.wav,None,1000,21,4019064,341,201.285
A,8,3819049,vowelstep3_catch.wav,1,105,21,4021065,310,203.285
A,8,3819049,vowelstep5.wav,None,1000,21,4023065,1214,205.285
A,8,3819049,vowelstep1_catch.wav,1,76,21,4025065,273,207.285
A,8,3819049,silence.wav,None,1000,21,4027065,1253,209.285
A,8,3819049,sinestep3.wav,None,1000,21,4029065,330,211.285
A,8,3819049,vowelstep5.wav,None,1000,21,4031064,330,213.285
A,8,3819049,silence.wav,None,1000,21,4033064,330,215.285
A,8,3819049,sinestep5.wav,None,1000,21,4035064,320,217.285
A,8,3819049,vowelstep7.wav,None,1000,21,4037064,321,219.285
A,8,3819049,silence.wav,None,1000,21,4039065,320,221.285
A,8,3819049,vowelstep3.wav,None,1000,21,4041065,319,223.285
A,8,3819049,sinestep7.wav,None,1000,21,4043065,329,225.285
A,8,3819049,silence.wav,None,1000,21,4045065,329,227.285
A,8,3819049,vowelstep3.wav,None,1000,21,4047065,339,229.285
A,8,3819049,vowelstep5.wav,None,1000,21,4049065,339,231.285
A,8,3819049,vowelstep7.wav,None,1000,21,4051065,319,233.285
A,8,3819049,vowelstep3.wav,None,1000,21,4053065,319,235.285
A,8,3819049,vowelstep5.wav,None,1000,21,4055064,320,237.285
A,8,3819049,sinestep1_catch.wav,1,172,21,4057065,329,239.285
A,8,3819049,sinestep3.wav,None,1000,21,4059065,1155,241.285
A,8,3819049,sinestep1.wav,None,1000,21,4061065,338,243.285
A,8,3819049,sinestep3_catch.wav,1,109,21,4063065,309,245.285
A,8,3819049,sinestep7.wav,None,1000,21,4065065,1208,247.285
A,8,3819049,vowelstep1.wav,None,1000,21,4067065,318,249.285
A,8,3819049,sinestep3.wav,None,1000,21,4069065,318,251.285
A,8,3819049,vowelstep7.wav,None,1000,21,4071065,328,253.285
A,8,3819049,silence.wav,None,1000,21,4073065,328,255.285
A,8,3819049,sinestep1.wav,None,1000,21,4075066,327,257.285
A,8,3819049,silence.wav,None,1000,21,4077066,337,259.285
A,8,3819049,vowelstep5.wav,None,1000,21,4079065,316,261.285
A,8,3819049,sinestep5_catch.wav,1,203,21,4081065,316,263.285
A,8,3819049,vowelstep7.wav,None,1000,21,4083065,1113,265.285
A,8,3819049,sinestep3.wav,None,1000,21,4085065,327,267.285
A,8,3819049,vowelstep1.wav,None,1000,21,4087065,327,269.285
A,8,3819049,vowelstep3.wav,None,1000,21,4089065,327,271.285
A,8,3819049,sinestep7_catch.wav,1,157,21,4091066,336,273.285
A,8,3819049,silence.wav,None,1000,21,4093066,1158,275.285
A,8,3819049,vowelstep7.wav,None,1000,21,4095066,315,277.285
A,8,3819049,sinestep7.wav,None,1000,21,4097066,316,279.285
A,8,3819049,sinestep1.wav,None,1000,21,4099066,325,281.285
A,8,3819049,vowelstep7.wav,None,1000,21,4101066,327,283.285
A,8,3819049,sinestep5.wav,None,1000,21,4103065,326,285.285
A,8,3819049,sinestep5.wav,None,1000,21,4105065,336,287.285
A,8,3819049,sinestep7_catch.wav,1,122,21,4107065,316,289.285
A,8,3819049,sinestep5.wav,None,1000,21,4109066,1193,291.285
A,8,3819049,silence.wav,None,1000,21,4111066,314,293.285
A,8,3819049,vowelstep3.wav,None,1000,21,4113066,325,295.285
A,8,3819049,silence.wav,None,1000,21,4115066,324,297.285
A,8,3819049,vowelstep1.wav,None,1000,21,4117066,325,299.285
A,8,3819049,sinestep1.wav,None,1000,21,4119066,335,301.285
A,8,3819049,sinestep7.wav,None,1000,21,4121066,314,303.285
A,8,3819049,vowelstep7.wav,None,1000,21,4123066,316,305.285
A,8,3819049,sinestep1_catch.wav,1,277,21,4125066,316,307.285
A,8,3819049,silence.wav,None,1000,21,4127067,1046,309.285
A,8,3819049,silence.wav,None,1000,21,4129066,323,311.285
A,8,3819049,vowelstep7.wav,None,1000,21,4131066,323,313.285
A,8,3819049,sinestep1.wav,None,1000,21,4133066,334,315.285
A,8,3819049,vowelstep7.wav,None,1000,21,4135066,303,317.285
A,8,3819049,vowelstep7.wav,None,1000,21,4137066,333,319.285
C,9,4191108,sinestep1.wav,None,1000,21,4191117,0,1.285
C,9,4191108,vowelstep1.wav,None,1000,21,4193117,339,3.285
C,9,4191108,sinestep1.wav,None,1000,21,4195117,329,5.285
C,9,4191108,sinestep1.wav,None,1000,21,4197118,329,7.285
C,9,4191108,vowelstep1.wav,None,1000,21,4199118,329,9.285
C,9,4191108,sinestep1.wav,None,1000,21,4201117,329,11.285
C,9,4191108,sinestep7.wav,None,1000,21,4203117,339,13.285
C,9,4191108,vowelstep7.wav,None,1000,21,4205117,338,15.285
C,9,4191108,vowelstep3.wav,None,1000,21,4207117,338,17.285
C,9,4191108,vowelstep5.wav,None,1000,21,4209117,319,19.285
C,9,4191108,silence.wav,None,1000,21,4211117,328,21.285
C,9,4191108,sinestep3.wav,None,1000,21,4213118,328,23.285
C,9,4191108,vowelstep5.wav,None,1000,21,4215118,327,25.285
C,9,4191108,sinestep1.wav,None,1000,21,4217118,337,27.285
C,9,4191108,vowelstep1.wav,None,1000,21,4219118,337,29.285
C,9,4191108,vowelstep7.wav,None,1000,21,4221118,337,31.285
C,9,4191108,vowelstep3.wav,None,1000,21,4223118,347,33.285
C,9,4191108,sinestep1.wav,None,1000,21,4225117,327,35.285
C,9,4191108,sinestep5.wav,None,1000,21,4227117,328,37.285
C,9,4191108,silence.wav,None,1000,21,4229117,327,39.285
C,9,4191108,vowelstep7.wav,None,1000,21,4231118,336,41.285
C,9,4191108,vowelstep5.wav,None,1000,21,4233118,337,43.285
C,9,4191108,sinestep5.wav,None,1000,21,4235118,346,45.285
C,9,4191108,silence.wav,None,1000,21,4237118,316,47.285
C,9,4191108,sinestep5.wav,None,1000,21,4239118,326,49.285
C,9,4191108,sinestep1.wav,None,1000,21,4241118,326,51.285
C,9,4191108,silence.wav,None,1000,21,4243118,326,53.285
C,9,4191108,vowelstep1.wav,None,1000,21,4245118,336,55.285
C,9,4191108,vowelstep1.wav,None,1000,21,4247118,335,57.285
C,9,4191108,sinestep1.wav,None,1000,21,4249118,336,59.285
C,9,4191108,silence.wav,None,1000,21,4251118,345,61.285
C,9,4191108,vowelstep5.wav,None,1000,21,4253118,325,63.285
C,9,4191108,vowelstep3.wav,None,1000,21,4255118,325,65.285
C,9,4191108,vowelstep3.wav,None,1000,21,4257118,326,67.285
C,9,4191108,vowelstep7.wav,None,1000,21,4259118,335,69.285
C,9,4191108,silence.wav,None,1000,21,4261118,336,71.285
C,9,4191108,vowelstep3.wav,None,1000,21,4263118,335,73.285
C,9,4191108,silence.wav,None,1000,21,4265118,345,75.285
C,9,4191108,sinestep5.wav,None,1000,21,4267119,346,77.285
C,9,4191108,vowelstep7.wav,None,1000,21,4269119,324,79.285
C,9,4191108,vowelstep1_catch.wav,1,326,21,4271119,325,81.285
C,9,4191108,vowelstep3.wav,None,1000,21,4273119,998,83.285
C,9,4191108,sinestep7.wav,None,1000,21,4275118,334,85.285
C,9,4191108,vowelstep3.wav,None,1000,21,4277118,333,87.285
C,9,4191108,sinestep1.wav,None,1000,21,4279118,344,89.285
C,9,4191108,sinestep7.wav,None,1000,21,4281118,314,91.285
C,9,4191108,sinestep7.wav,None,1000,21,4283119,324,93.285
C,9,4191108,sinestep3.wav,None,1000,21,4285119,322,95.285
C,9,4191108,vowelstep3_catch.wav,1,155,21,4287119,333,97.285
C,9,4191108,sinestep5.wav,None,1000,21,4289119,1165,99.285
C,9,4191108,sinestep5.wav,None,1000,21,4291119,333,101.285
C,9,4191108,vowelstep3.wav,None,1000,21,4293119,333,103.285
C,9,4191108,vowelstep5.wav,None,1000,21,4295119,343,105.285
C,9,4191108,sinestep1.wav,None,1000,21,4297119,324,107.285
C,9,4191108,sinestep3.wav,None,1000,21,4299118,323,109.285
C,9,4191108,vowelstep5.wav,None,1000,21,4301119,323,111.285
C,9,4191108,vowelstep7.wav,None,1000,21,4303119,332,113.285
C,9,4191108,vowelstep1.wav,None,1000,21,4305119,332,115.285
C,9,4191108,sinestep7.wav,None,1000,21,4307119,333,117.285
C,9,4191108,sinestep3.wav,None,1000,21,4309119,311,119.285
C,9,4191108,vowelstep1.wav,None,1000,21,4311119,322,121.285
C,9,4191108,vowelstep1.wav,None,1000,21,4313119,322,123.285
C,9,4191108,sinestep3.wav,None,1000,21,4315119,332,125.285
C,9,4191108,silence.wav,None,1000,21,4317119,327,127.285
C,9,4191108,silence.wav,None,1000,21,4319120,332,129.285
C,9,4191108,vowelstep5_catch.wav,1,240,21,4321120,331,131.285
C,9,4191108,vowelstep5.wav,None,1000,21,4323119,1080,133.285
C,9,4191108,silence.wav,None,1000,21,4325119,321,135.285
C,9,4191108,sinestep1.wav,None,1000,21,4327119,321,137.285
C,9,4191108,vowelstep7.wav,None,1000,21,4329119,321,139.285
C,9,4191108,sinestep7.wav,None,1000,21,4331119,331,141.285
C,9,4191108,silence.wav,None,1000,21,4333119,331,143.285
C,9,4191108,silence.wav,None,1000,21,4335119,341,145.285
C,9,4191108,sinestep7.wav,None,1000,21,4337120,340,147.285
C,9,4191108,vowelstep1.wav,None,1000,21,4339120,320,149.285
C,9,4191108,vowelstep5.wav,None,1000,21,4341120,320,151.285
C,9,4191108,vowelstep5.wav,None,1000,21,4343120,320,153.285
C,9,4191108,vowelstep7.wav,None,1000,21,4345120,330,155.285
C,9,4191108,sinestep7.wav,None,1000,21,4347119,330,157.285
C,9,4191108,vowelstep1.wav,None,1000,21,4349119,330,159.285
C,9,4191108,vowelstep3.wav,None,1000,21,4351119,309,161.285
C,9,4191108,sinestep5.wav,None,1000,21,4353120,319,163.285
C,9,4191108,sinestep7.wav,None,1000,21,4355120,318,165.285
C,9,4191108,sinestep1.wav,None,1000,21,4357120,319,167.285
C,9,4191108,sinestep7.wav,None,1000,21,4359120,328,169.285
C,9,4191108,sinestep3.wav,None,1000,21,4361120,328,171.285
C,9,4191108,silence.wav,None,1000,21,4363120,328,173.285
C,9,4191108,vowelstep7.wav,None,1000,21,4365120,328,175.285
C,9,4191108,sinestep7.wav,None,1000,21,4367120,319,177.285
C,9,4191108,sinestep5.wav,None,1000,21,4369120,318,179.285
C,9,4191108,vowelstep7.wav,None,1000,21,4371120,318,181.285
C,9,4191108,vowelstep5.wav,None,1000,21,4373120,327,183.285
C,9,4191108,vowelstep3.wav,None,1000,21,4375120,327,185.285
C,9,4191108,vowelstep7_catch.wav,1,228,21,4377120,327,187.285
C,9,4191108,vowelstep3.wav,None,1000,21,4379120,1109,189.285
C,9,4191108,vowelstep5.wav,None,1000,21,4381120,337,191.285
C,9,4191108,vowelstep7.wav,None,1000,21,4383120,337,193.285
C,9,4191108,vowelstep7_catch.wav,1,221,21,4385120,338,195.285
C,9,4191108,vowelstep5_catch.wav,1,128,21,4387120,1106,197.285
C,9,4191108,sinestep5.wav,None,1000,21,4389121,1198,199.285
C,9,4191108,sinestep3.wav,None,1000,21,4391121,326,201.285
C,9,4191108,vowelstep3_catch.wav,1,169,21,4393121,326,203.285
C,9,4191108,vowelstep1_catch.wav,1,212,21,4395121,1166,205.285
C,9,4191108,vowelstep5.wav,None,1000,21,4397120,1123,207.285
C,9,4191108,vowelstep1.wav,None,1000,21,4399120,346,209.285
C,9,4191108,sinestep1_catch.wav,1,217,21,4401120,326,211.285
C,9,4191108,sinestep3_catch.wav,1,160,21,4403120,1109,213.285
C,9,4191108,sinestep1.wav,None,1000,21,4405120,1165,215.285
C,9,4191108,vowelstep3.wav,None,1000,21,4407121,335,217.285
C,9,4191108,sinestep3.wav,None,1000,21,4409121,336,219.285
C,9,4191108,vowelstep5.wav,None,1000,21,4411121,335,221.285
C,9,4191108,sinestep7.wav,None,1000,21,4413121,346,223.285
C,9,4191108,sinestep1.wav,None,1000,21,4415121,325,225.285
C,9,4191108,sinestep5_catch.wav,1,216,21,4417121,325,227.285
C,9,4191108,vowelstep7.wav,None,1000,21,4419121,1108,229.285
C,9,4191108,vowelstep3.wav,None,1000,21,4421120,325,231.285
C,9,4191108,silence.wav,None,1000,21,4423121,335,233.285
C,9,4191108,vowelstep1.wav,None,1000,21,4425121,334,235.285
C,9,4191108,sinestep5.wav,None,1000,21,4427121,334,237.285
C,9,4191108,sinestep1.wav,None,1000,21,4429121,344,239.285
C,9,4191108,vowelstep7.wav,None,1000,21,4431121,324,241.285
C,9,4191108,sinestep3.wav,None,1000,21,4433121,325,243.285
C,9,4191108,sinestep3.wav,None,1000,21,4435121,324,245.285
C,9,4191108,sinestep5.wav,None,1000,21,4437121,334,247.285
C,9,4191108,vowelstep3.wav,None,1000,21,4439121,334,249.285
C,9,4191108,sinestep3.wav,None,1000,21,4441122,335,251.285
C,9,4191108,silence.wav,None,1000,21,4443122,343,253.285
C,9,4191108,sinestep3.wav,None,1000,21,4445121,323,255.285
C,9,4191108,vowelstep1.wav,None,1000,21,4447121,322,257.285
C,9,4191108,silence.wav,None,1000,21,4449121,333,259.285
C,9,4191108,vowelstep1.wav,None,1000,21,4451121,331,261.285
C,9,4191108,silence.wav,None,1000,21,4453121,333,263.285
C,9,4191108,sinestep7.wav,None,1000,21,4455121,333,265.285
C,9,4191108,sinestep3.wav,None,1000,21,4457121,343,267.285
C,9,4191108,vowelstep1.wav,None,1000,21,4459122,323,269.285
C,9,4191108,sinestep7.wav,None,1000,21,4461122,322,271.285
C,9,4191108,sinestep7_catch.wav,1,119,21,4463122,322,273.285
C,9,4191108,vowelstep5.wav,None,1000,21,4465122,1212,275.285
C,9,4191108,silence.wav,None,1000,21,4467122,331,277.285
C,9,4191108,silence.wav,None,1000,21,4469121,330,279.285
C,9,4191108,sinestep3.wav,None,1000,21,4471121,342,281.285
C,9,4191108,vowelstep7.wav,None,1000,21,4473121,322,283.285
C,9,4191108,sinestep5.wav,None,1000,21,4475121,323,285.285
C,9,4191108,sinestep5.wav,None,1000,21,4477122,331,287.285
C,9,4191108,vowelstep3.wav,None,1000,21,4479122,330,289.285
C,9,4191108,sinestep3.wav,None,1000,21,4481122,331,291.285
C,9,4191108,silence.wav,None,1000,21,4483122,330,293.285
C,9,4191108,silence.wav,None,1000,21,4485122,340,295.285
C,9,4191108,vowelstep7.wav,None,1000,21,4487122,309,297.285
C,9,4191108,silence.wav,None,1000,21,4489122,319,299.285
C,9,4191108,vowelstep5.wav,None,1000,21,4491122,316,301.285
C,9,4191108,sinestep5.wav,None,1000,21,4493123,329,303.285
C,9,4191108,silence.wav,None,1000,21,4495122,330,305.285
C,9,4191108,silence.wav,None,1000,21,4497122,329,307.285
C,9,4191108,silence.wav,None,1000,21,4499122,332,309.285
C,9,4191108,sinestep7_catch.wav,1,207,21,4501122,319,311.285
C,9,4191108,sinestep7.wav,None,1000,21,4503122,1112,313.285
C,9,4191108,sinestep5_catch.wav,1,58,21,4505122,321,315.285
C,9,4191108,sinestep5.wav,None,1000,21,4507122,1271,317.285
C,9,4191108,sinestep3_catch.wav,1,37,21,4509122,330,319.285