block,count_main_sequence,first_trial_timestamp,fname,response_catch_response,response_time_catch_response,subject_nr,time_stimulus,time_to_pad,timing
D,0,54875,sinestep5.wav,None,1000,26,54889,0,1.285
D,0,54875,vowelstep1_catch.wav,None,1000,26,56890,332,3.285
D,0,54875,sinestep7.wav,None,1000,26,58890,342,5.285
D,0,54875,vowelstep3.wav,None,1000,26,60890,352,7.285
D,0,54875,vowelstep3_catch.wav,None,1000,26,62890,329,9.285
D,0,54875,vowelstep5_catch.wav,None,1000,26,64890,331,11.285
D,0,54875,sinestep7.wav,None,1000,26,66890,330,13.285
D,0,54875,silence.wav,None,1000,26,68890,341,15.285
D,0,54875,vowelstep7_catch.wav,None,1000,26,70890,342,17.285
D,0,54875,vowelstep7.wav,None,1000,26,72889,342,19.285
D,0,54875,vowelstep3.wav,None,1000,26,74890,322,21.285
D,0,54875,vowelstep7_catch.wav,None,1000,26,76890,331,23.285
D,0,54875,vowelstep5.wav,None,1000,26,78890,331,25.285
D,0,54875,sinestep7.wav,None,1000,26,80890,328,27.285
D,0,54875,silence.wav,None,1000,26,82890,341,29.285
D,0,54875,vowelstep1.wav,None,1000,26,84890,341,31.285
D,0,54875,vowelstep1.wav,None,1000,26,86890,341,33.285
D,0,54875,vowelstep7.wav,None,1000,26,88890,352,35.285
D,0,54875,vowelstep3.wav,None,1000,26,90890,331,37.285
D,0,54875,sinestep3.wav,None,1000,26,92891,330,39.285
D,0,54875,sinestep1.wav,None,1000,26,94891,329,41.285
D,0,54875,vowelstep1.wav,None,1000,26,96890,339,43.285
D,0,54875,vowelstep1.wav,None,1000,26,98890,340,45.285
D,0,54875,sinestep7.wav,None,1000,26,100890,340,47.285
D,0,54875,sinestep3.wav,None,1000,26,102890,350,49.285
D,0,54875,vowelstep5_catch.wav,None,1000,26,104890,330,51.285
D,0,54875,sinestep7.wav,None,1000,26,106890,330,53.285
D,0,54875,vowelstep5.wav,None,1000,26,108891,331,55.285
D,0,54875,sinestep3.wav,None,1000,26,110891,329,57.285
D,0,54875,sinestep7.wav,None,1000,26,112891,339,59.285
D,0,54875,vowelstep3.wav,None,1000,26,114891,339,61.285
D,0,54875,vowelstep3.wav,None,1000,26,116891,339,63.285
D,0,54875,vowelstep3_catch.wav,None,1000,26,118891,319,65.285
D,0,54875,silence.wav,None,1000,26,120891,329,67.285
D,0,54875,vowelstep7.wav,None,1000,26,122890,329,69.285
D,0,54875,silence.wav,None,1000,26,124890,339,71.285
D,0,54875,sinestep1.wav,None,1000,26,126891,339,73.285
D,0,54875,vowelstep5.wav,None,1000,26,128891,337,75.285
D,0,54875,vowelstep1.wav,None,1000,26,130891,338,77.285
D,0,54875,sinestep7.wav,None,1000,26,132891,327,79.285
D,0,54875,vowelstep1.wav,None,1000,26,134891,328,81.285
D,0,54875,sinestep7.wav,None,1000,26,136891,328,83.285
D,0,54875,vowelstep7.wav,None,1000,26,138891,328,85.285
D,0,54875,vowelstep5.wav,None,1000,26,140891,337,87.285
D,0,54875,vowelstep1.wav,None,1000,26,142891,337,89.285
D,0,54875,sinestep5.wav,None,1000,26,144891,347,91.285
D,0,54875,sinestep5.wav,None,1000,26,146891,317,93.285
D,0,54875,vowelstep3.wav,None,1000,26,148891,346,95.285
D,0,54875,silence.wav,None,1000,26,150891,327,97.285
D,0,54875,sinestep1.wav,None,1000,26,152891,357,99.285
D,0,54875,sinestep1.wav,None,1000,26,154891,337,101.285
D,0,54875,sinestep3.wav,None,1000,26,156891,337,103.285
D,0,54875,vowelstep1.wav,None,1000,26,158891,337,105.285
D,0,54875,sinestep7.wav,None,1000,26,160891,346,107.285
D,0,54875,vowelstep3.wav,None,1000,26,162892,346,109.285
D,0,54875,silence.wav,None,1000,26,164892,342,111.285
D,0,54875,vowelstep5.wav,None,1000,26,166892,355,113.285
D,0,54875,vowelstep1.wav,None,1000,26,168892,336,115.285
D,0,54875,vowelstep1_catch.wav,None,1000,26,170891,335,117.285
D,0,54875,vowelstep7.wav,None,1000,26,172891,335,119.285
D,0,54875,sinestep5.wav,None,1000,26,174891,345,121.285
D,0,54875,vowelstep7.wav,None,1000,26,176891,346,123.285
D,0,54875,sinestep1.wav,None,1000,26,178892,345,125.285
D,0,54875,sinestep1.wav,None,1000,26,180892,324,127.285
D,0,54875,vowelstep3.wav,None,1000,26,182892,335,129.285
D,0,54875,sinestep1.wav,None,1000,26,184892,335,131.285
D,0,54875,silence.wav,None,1000,26,186892,334,133.285
D,0,54875,sinestep3.wav,None,1000,26,188892,345,135.285
D,0,54875,silence.wav,None,1000,26,190892,344,137.285
D,0,54875,vowelstep3.wav,None,1000,26,192892,344,139.285
D,0,54875,vowelstep5.wav,None,1000,26,194891,355,141.285
D,0,54875,silence.wav,None,1000,26,196892,334,143.285
D,0,54875,sinestep5.wav,2,485,26,198892,334,145.285
D,0,54875,sinestep5.wav,None,1000,26,200892,848,147.285
D,0,54875,sinestep1.wav,None,1000,26,202892,333,149.285
D,0,54875,vowelstep5.wav,None,1000,26,204892,344,151.285
D,0,54875,vowelstep5.wav,None,1000,26,206892,343,153.285
D,0,54875,sinestep1_catch.wav,2,206,26,208892,324,155.285
D,0,54875,sinestep5.wav,None,1000,26,210892,1127,157.285
D,0,54875,vowelstep3.wav,None,1000,26,212892,333,159.285
D,0,54875,vowelstep7.wav,None,1000,26,214893,333,161.285
D,0,54875,vowelstep3.wav,None,1000,26,216893,343,163.285
D,0,54875,sinestep3.wav,None,1000,26,218892,344,165.285
D,0,54875,sinestep1.wav,None,1000,26,220892,343,167.285
D,0,54875,silence.wav,None,1000,26,222892,343,169.285
D,0,54875,sinestep1.wav,None,1000,26,224892,333,171.285
D,0,54875,vowelstep1.wav,None,1000,26,226892,332,173.285
D,0,54875,vowelstep3.wav,None,1000,26,228892,332,175.285
D,0,54875,silence.wav,None,1000,26,230892,332,177.285
D,0,54875,sinestep7.wav,None,1000,26,232893,341,179.285
D,0,54875,silence.wav,None,1000,26,234893,341,181.285
D,0,54875,vowelstep7.wav,None,1000,26,236893,352,183.285
D,0,54875,sinestep3.wav,None,1000,26,238893,321,185.285
D,0,54875,vowelstep1.wav,None,1000,26,240893,332,187.285
D,0,54875,sinestep7.wav,None,1000,26,242892,330,189.285
D,0,54875,silence.wav,None,1000,26,244892,329,191.285
D,0,54875,sinestep1.wav,None,1000,26,246892,341,193.285
D,0,54875,sinestep3.wav,None,1000,26,248893,342,195.285
D,0,54875,sinestep5.wav,None,1000,26,250893,350,197.285
D,0,54875,vowelstep3.wav,None,1000,26,252893,329,199.285
D,0,54875,sinestep5.wav,None,1000,26,254893,330,201.285
D,0,54875,sinestep5.wav,None,1000,26,256893,330,203.285
D,0,54875,sinestep3.wav,None,1000,26,258893,331,205.285
D,0,54875,sinestep3.wav,None,1000,26,260893,339,207.285
D,0,54875,sinestep5.wav,None,1000,26,262893,340,209.285
D,0,54875,sinestep3_catch.wav,2,139,26,264893,340,211.285
D,0,54875,vowelstep7.wav,None,1000,26,266893,1211,213.285
D,0,54875,sinestep1.wav,None,1000,26,268893,329,215.285
D,0,54875,sinestep7.wav,None,1000,26,270893,325,217.285
D,0,54875,vowelstep1.wav,None,1000,26,272893,329,219.285
D,0,54875,sinestep5.wav,None,1000,26,274893,339,221.285
D,0,54875,silence.wav,None,1000,26,276893,338,223.285
D,0,54875,sinestep5_catch.wav,2,142,26,278893,350,225.285
D,0,54875,sinestep5.wav,None,1000,26,280893,1177,227.285
D,0,54875,silence.wav,None,1000,26,282893,329,229.285
D,0,54875,vowelstep7.wav,None,1000,26,284894,329,231.285
D,0,54875,sinestep3.wav,None,1000,26,286894,337,233.285
D,0,54875,vowelstep5.wav,None,1000,26,288894,338,235.285
D,0,54875,vowelstep7.wav,None,1000,26,290894,338,237.285
D,0,54875,vowelstep5.wav,None,1000,26,292893,338,239.285
D,0,54875,silence.wav,None,1000,26,294893,348,241.285
D,0,54875,silence.wav,None,1000,26,296893,328,243.285
D,0,54875,silence.wav,None,1000,26,298893,328,245.285
D,0,54875,sinestep7.wav,None,1000,26,300893,328,247.285
D,0,54875,sinestep5.wav,None,1000,26,302894,336,249.285
D,0,54875,sinestep7_catch.wav,2,116,26,304894,333,251.285
D,0,54875,vowelstep1.wav,None,1000,26,306894,1220,253.285
D,0,54875,vowelstep1.wav,None,1000,26,308894,316,255.285
D,0,54875,vowelstep3.wav,None,1000,26,310894,327,257.285
D,0,54875,silence.wav,None,1000,26,312894,327,259.285
D,0,54875,sinestep5.wav,None,1000,26,314893,327,261.285
D,0,54875,vowelstep7.wav,None,1000,26,316893,337,263.285
D,0,54875,vowelstep3.wav,None,1000,26,318894,336,265.285
D,0,54875,vowelstep7.wav,None,1000,26,320894,336,267.285
D,0,54875,vowelstep5.wav,None,1000,26,322894,346,269.285
D,0,54875,sinestep1.wav,None,1000,26,324894,326,271.285
D,0,54875,sinestep7.wav,None,1000,26,326877,326,273.285
D,0,54875,sinestep3.wav,None,1000,26,328894,355,275.285
D,0,54875,silence.wav,None,1000,26,330894,336,277.285
D,0,54875,sinestep7.wav,None,1000,26,332894,336,279.285
D,0,54875,vowelstep5.wav,None,1000,26,334894,333,281.285
D,0,54875,sinestep1.wav,None,1000,26,336895,346,283.285
D,0,54875,vowelstep1.wav,None,1000,26,338895,325,285.285
D,0,54875,sinestep1.wav,None,1000,26,340894,324,287.285
D,0,54875,vowelstep5.wav,None,1000,26,342878,325,289.285
D,0,54875,silence.wav,None,1000,26,344878,355,291.285
D,0,54875,sinestep3.wav,None,1000,26,346894,355,293.285
D,0,54875,vowelstep5.wav,None,1000,26,348894,335,295.285
D,0,54875,silence.wav,None,1000,26,350894,335,297.285
D,0,54875,sinestep3.wav,None,1000,26,352894,325,299.285
D,0,54875,vowelstep7.wav,None,1000,26,354895,323,301.285
D,0,54875,sinestep7_catch.wav,2,198,26,356895,325,303.285
D,0,54875,sinestep5_catch.wav,2,108,26,358878,1135,305.285
D,0,54875,sinestep3.wav,None,1000,26,360878,1246,307.285
D,0,54875,vowelstep5.wav,None,1000,26,362878,354,309.285
D,0,54875,silence.wav,None,1000,26,364894,334,311.285
D,0,54875,sinestep3_catch.wav,2,152,26,366894,323,313.285
D,0,54875,silence.wav,None,1000,26,368894,1169,315.285
D,0,54875,vowelstep7.wav,None,1000,26,370894,323,317.285
D,0,54875,silence.wav,None,1000,26,372895,322,319.285
F,1,450312,sinestep1.wav,None,1000,26,450329,0,1.285
F,1,450312,vowelstep5.wav,None,1000,26,452329,335,3.285
F,1,450312,vowelstep3.wav,None,1000,26,454329,336,5.285
F,1,450312,sinestep5.wav,None,1000,26,456329,336,7.285
F,1,450312,vowelstep7.wav,None,1000,26,458329,336,9.285
F,1,450312,silence.wav,None,1000,26,460330,324,11.285
F,1,450312,vowelstep5.wav,None,1000,26,462330,325,13.285
F,1,450312,sinestep3.wav,None,1000,26,464330,324,15.285
F,1,450312,sinestep3.wav,None,1000,26,466330,335,17.285
F,1,450312,silence.wav,None,1000,26,468329,332,19.285
F,1,450312,vowelstep7.wav,None,1000,26,470329,335,21.285
F,1,450312,vowelstep7.wav,None,1000,26,472329,344,23.285
F,1,450312,vowelstep1_catch.wav,None,1000,26,474329,344,25.285
F,1,450312,vowelstep3_catch.wav,None,1000,26,476330,344,27.285
F,1,450312,vowelstep1.wav,None,1000,26,478330,344,29.285
F,1,450312,sinestep5.wav,None,1000,26,480330,334,31.285
F,1,450312,sinestep5.wav,None,1000,26,482330,333,33.285
F,1,450312,vowelstep7.wav,None,1000,26,484330,334,35.285
F,1,450312,sinestep3.wav,None,1000,26,486330,343,37.285
F,1,450312,sinestep7.wav,None,1000,26,488330,343,39.285
F,1,450312,vowelstep5_catch.wav,None,1000,26,490330,343,41.285
F,1,450312,sinestep1.wav,None,1000,26,492330,318,43.285
F,1,450312,vowelstep7_catch.wav,None,1000,26,494330,332,45.285
F,1,450312,vowelstep3.wav,None,1000,26,496330,332,47.285
F,1,450312,sinestep1.wav,None,1000,26,498330,333,49.285
F,1,450312,sinestep7.wav,None,1000,26,500330,343,51.285
F,1,450312,silence.wav,None,1000,26,502330,342,53.285
F,1,450312,sinestep7.wav,None,1000,26,504330,340,55.285
F,1,450312,vowelstep1.wav,None,1000,26,506330,342,57.285
F,1,450312,vowelstep3.wav,None,1000,26,508330,322,59.285
F,1,450312,vowelstep7_catch.wav,None,1000,26,510330,333,61.285
F,1,450312,sinestep5.wav,None,1000,26,512331,332,63.285
F,1,450312,sinestep3.wav,None,1000,26,514331,332,65.285
F,1,450312,vowelstep3.wav,None,1000,26,516331,342,67.285
F,1,450312,silence.wav,None,1000,26,518330,341,69.285
F,1,450312,vowelstep1.wav,None,1000,26,520330,341,71.285
F,1,450312,vowelstep1.wav,None,1000,26,522330,331,73.285
F,1,450312,vowelstep5_catch.wav,None,1000,26,524330,331,75.285
F,1,450312,silence.wav,None,1000,26,526330,331,77.285
F,1,450312,vowelstep3.wav,None,1000,26,528330,331,79.285
F,1,450312,vowelstep5.wav,None,1000,26,530331,340,81.285
F,1,450312,vowelstep3_catch.wav,None,1000,26,532331,340,83.285
F,1,450312,vowelstep3.wav,None,1000,26,534331,350,85.285
F,1,450312,sinestep7.wav,None,1000,26,536331,351,87.285
F,1,450312,vowelstep1.wav,None,1000,26,538331,330,89.285
F,1,450312,sinestep1.wav,None,1000,26,540331,330,91.285
F,1,450312,vowelstep1_catch.wav,None,1000,26,542330,330,93.285
F,1,450312,vowelstep5.wav,None,1000,26,544330,337,95.285
F,1,450312,sinestep7.wav,None,1000,26,546315,340,97.285
F,1,450312,vowelstep7.wav,None,1000,26,548331,339,99.285
F,1,450312,vowelstep3.wav,None,1000,26,550331,348,101.285
F,1,450312,sinestep3.wav,None,1000,26,552331,330,103.285
F,1,450312,silence.wav,None,1000,26,554331,330,105.285
F,1,450312,sinestep1.wav,None,1000,26,556331,330,107.285
F,1,450312,sinestep1.wav,None,1000,26,558331,340,109.285
F,1,450312,silence.wav,None,1000,26,560331,339,111.285
F,1,450312,sinestep7.wav,2,183,26,562331,340,113.285
F,1,450312,vowelstep3.wav,None,1000,26,564315,1163,115.285
F,1,450312,sinestep3.wav,None,1000,26,566315,349,117.285
F,1,450312,vowelstep3.wav,None,1000,26,568331,348,119.285
F,1,450312,vowelstep7.wav,None,1000,26,570331,337,121.285
F,1,450312,vowelstep7.wav,None,1000,26,572331,338,123.285
F,1,450312,vowelstep5.wav,None,1000,26,574331,337,125.285
F,1,450312,sinestep1.wav,None,1000,26,576331,337,127.285
F,1,450312,silence.wav,None,1000,26,578331,348,129.285
F,1,450312,sinestep1.wav,None,1000,26,580331,329,131.285
F,1,450312,sinestep3.wav,None,1000,26,582315,328,133.285
F,1,450312,sinestep1_catch.wav,2,154,26,584315,357,135.285
F,1,450312,sinestep3.wav,None,1000,26,586332,1202,137.285
F,1,450312,sinestep3.wav,None,1000,26,588332,336,139.285
F,1,450312,silence.wav,None,1000,26,590331,336,141.285
F,1,450312,silence.wav,None,1000,26,592331,347,143.285
F,1,450312,sinestep7.wav,None,1000,26,594315,348,145.285
F,1,450312,sinestep5.wav,None,1000,26,596331,345,147.285
F,1,450312,vowelstep1.wav,None,1000,26,598331,327,149.285
F,1,450312,sinestep7.wav,None,1000,26,600315,335,151.285
F,1,450312,silence.wav,None,1000,26,602315,353,153.285
F,1,450312,sinestep3_catch.wav,2,137,26,604332,355,155.285
F,1,450312,vowelstep5.wav,None,1000,26,606332,1208,157.285
F,1,450312,sinestep3.wav,None,1000,26,608332,316,159.285
F,1,450312,vowelstep5.wav,None,1000,26,610315,326,161.285
F,1,450312,sinestep3.wav,None,1000,26,612315,333,163.285
F,1,450312,vowelstep3.wav,None,1000,26,614331,356,165.285
F,1,450312,vowelstep1.wav,None,1000,26,616316,334,167.285
F,1,450312,sinestep5.wav,None,1000,26,618316,365,169.285
F,1,450312,vowelstep5.wav,None,1000,26,620316,334,171.285
F,1,450312,vowelstep1.wav,None,1000,26,622332,345,173.285
F,1,450312,vowelstep1.wav,None,1000,26,624332,325,175.285
F,1,450312,sinestep7.wav,None,1000,26,626315,325,177.285
F,1,450312,vowelstep1.wav,None,1000,26,628315,356,179.285
F,1,450312,sinestep5.wav,None,1000,26,630315,355,181.285
F,1,450312,vowelstep7.wav,None,1000,26,632315,355,183.285
F,1,450312,sinestep1.wav,None,1000,26,634316,345,185.285
F,1,450312,vowelstep7.wav,None,1000,26,636316,345,187.285
F,1,450312,sinestep5.wav,None,1000,26,638316,343,189.285
F,1,450312,vowelstep5.wav,None,1000,26,640332,345,191.285
F,1,450312,silence.wav,None,1000,26,642316,334,193.285
F,1,450312,sinestep7.wav,None,1000,26,644316,355,195.285
F,1,450312,vowelstep5.wav,None,1000,26,646315,354,197.285
F,1,450312,vowelstep7.wav,None,1000,26,648315,333,199.285
F,1,450312,silence.wav,None,1000,26,650315,343,201.285
F,1,450312,vowelstep1.wav,None,1000,26,652316,342,203.285
F,1,450312,vowelstep7.wav,None,1000,26,654316,343,205.285
F,1,450312,vowelstep7.wav,None,1000,26,656316,353,207.285
F,1,450312,vowelstep3.wav,None,1000,26,658316,352,209.285
F,1,450312,vowelstep3.wav,None,1000,26,660316,353,211.285
F,1,450312,silence.wav,None,1000,26,662316,363,213.285
F,1,450312,sinestep7.wav,None,1000,26,664316,343,215.285
F,1,450312,sinestep1.wav,None,1000,26,666316,342,217.285
F,1,450312,silence.wav,None,1000,26,668317,342,219.285
F,1,450312,vowelstep1.wav,None,1000,26,670316,353,221.285
F,1,450312,sinestep5_catch.wav,2,440,26,672316,352,223.285
F,1,450312,sinestep1.wav,None,1000,26,674316,912,225.285
F,1,450312,silence.wav,None,1000,26,676316,362,227.285
F,1,450312,sinestep7.wav,None,1000,26,678316,341,229.285
F,1,450312,sinestep7.wav,None,1000,26,680316,342,231.285
F,1,450312,silence.wav,None,1000,26,682316,341,233.285
F,1,450312,vowelstep5.wav,None,1000,26,684316,341,235.285
F,1,450312,sinestep7.wav,None,1000,26,686317,351,237.285
F,1,450312,sinestep5.wav,None,1000,26,688317,350,239.285
F,1,450312,sinestep5.wav,None,1000,26,690317,361,241.285
F,1,450312,silence.wav,None,1000,26,692317,341,243.285
F,1,450312,vowelstep3.wav,None,1000,26,694316,341,245.285
F,1,450312,vowelstep3.wav,None,1000,26,696316,336,247.285
F,1,450312,silence.wav,None,1000,26,698316,351,249.285
F,1,450312,sinestep1.wav,None,1000,26,700316,350,251.285
F,1,450312,sinestep1.wav,None,1000,26,702316,350,253.285
F,1,450312,vowelstep5.wav,None,1000,26,704317,350,255.285
F,1,450312,silence.wav,None,1000,26,706317,296,257.285
F,1,450312,sinestep5.wav,None,1000,26,708317,341,259.285
F,1,450312,sinestep5.wav,None,1000,26,710317,340,261.285
F,1,450312,sinestep5.wav,None,1000,26,712317,339,263.285
F,1,450312,sinestep7.wav,None,1000,26,714317,349,265.285
F,1,450312,sinestep7_catch.wav,2,154,26,716317,350,267.285
F,1,450312,sinestep7_catch.wav,2,26,26,718317,1205,269.285
F,1,450312,sinestep1.wav,None,1000,26,720316,1302,271.285
F,1,450312,vowelstep7.wav,None,1000,26,722317,339,273.285
F,1,450312,sinestep3.wav,None,1000,26,724317,339,275.285
F,1,450312,sinestep3.wav,None,1000,26,726317,349,277.285
F,1,450312,silence.wav,None,1000,26,728317,348,279.285
F,1,450312,sinestep5_catch.wav,2,523,26,730317,349,281.285
F,1,450312,sinestep5.wav,None,1000,26,732317,835,283.285
F,1,450312,silence.wav,None,1000,26,734317,338,285.285
F,1,450312,vowelstep5.wav,None,1000,26,736317,338,287.285
F,1,450312,silence.wav,None,1000,26,738318,338,289.285
F,1,450312,sinestep1.wav,None,1000,26,740318,348,291.285
F,1,450312,sinestep3.wav,None,1000,26,742318,348,293.285
F,1,450312,vowelstep3.wav,None,1000,26,744317,347,295.285
F,1,450312,silence.wav,None,1000,26,746317,347,297.285
F,1,450312,sinestep5.wav,None,1000,26,748317,357,299.285
F,1,450312,vowelstep5.wav,None,1000,26,750317,337,301.285
F,1,450312,vowelstep5.wav,None,1000,26,752317,338,303.285
F,1,450312,vowelstep1.wav,None,1000,26,754317,338,305.285
F,1,450312,sinestep3.wav,None,1000,26,756318,348,307.285
F,1,450312,silence.wav,None,1000,26,758318,347,309.285
F,1,450312,sinestep3_catch.wav,2,56,26,760318,347,311.285
F,1,450312,vowelstep1.wav,None,1000,26,762318,1270,313.285
F,1,450312,vowelstep7.wav,None,1000,26,764318,336,315.285
F,1,450312,vowelstep7.wav,None,1000,26,766318,336,317.285
F,1,450312,vowelstep1.wav,None,1000,26,768317,336,319.285
H,2,828278,sinestep3.wav,None,1000,26,828286,0,1.285
H,2,828278,sinestep7.wav,None,1000,26,830286,338,3.285
H,2,828278,sinestep3.wav,None,1000,26,832286,338,5.285
H,2,828278,vowelstep3.wav,None,1000,26,834285,338,7.285
H,2,828278,vowelstep1.wav,None,1000,26,836285,348,9.285
H,2,828278,sinestep7.wav,None,1000,26,838285,348,11.285
H,2,828278,vowelstep3.wav,None,1000,26,840285,348,13.285
H,2,828278,silence.wav,None,1000,26,842285,348,15.285
H,2,828278,vowelstep1.wav,None,1000,26,844286,359,17.285
H,2,828278,sinestep5.wav,None,1000,26,846286,338,19.285
H,2,828278,sinestep7.wav,None,1000,26,848286,337,21.285
H,2,828278,vowelstep7.wav,None,1000,26,850286,337,23.285
H,2,828278,vowelstep1_catch.wav,None,1000,26,852286,346,25.285
H,2,828278,sinestep5.wav,None,1000,26,854286,347,27.285
H,2,828278,vowelstep5.wav,None,1000,26,856285,347,29.285
H,2,828278,silence.wav,None,1000,26,858285,327,31.285
H,2,828278,vowelstep3_catch.wav,None,1000,26,860285,337,33.285
H,2,828278,sinestep7.wav,None,1000,26,862286,336,35.285
H,2,828278,sinestep5.wav,None,1000,26,864286,346,37.285
H,2,828278,silence.wav,None,1000,26,866286,346,39.285
H,2,828278,vowelstep3.wav,None,1000,26,868286,346,41.285
H,2,828278,vowelstep1.wav,None,1000,26,870286,346,43.285
H,2,828278,vowelstep1.wav,None,1000,26,872286,356,45.285
H,2,828278,vowelstep3.wav,None,1000,26,874286,332,47.285
H,2,828278,sinestep3.wav,None,1000,26,876286,336,49.285
H,2,828278,vowelstep1.wav,None,1000,26,878287,337,51.285
H,2,828278,sinestep7.wav,None,1000,26,880286,345,53.285
H,2,828278,vowelstep7.wav,None,1000,26,882286,345,55.285
H,2,828278,vowelstep5_catch.wav,None,1000,26,884286,354,57.285
H,2,828278,vowelstep5.wav,None,1000,26,886286,325,59.285
H,2,828278,vowelstep3.wav,None,1000,26,888286,333,61.285
H,2,828278,vowelstep7_catch.wav,None,1000,26,890286,335,63.285
H,2,828278,sinestep3.wav,None,1000,26,892286,335,65.285
H,2,828278,sinestep1.wav,None,1000,26,894286,345,67.285
H,2,828278,sinestep7.wav,None,1000,26,896287,345,69.285
H,2,828278,silence.wav,None,1000,26,898287,344,71.285
H,2,828278,vowelstep1.wav,None,1000,26,900287,353,73.285
H,2,828278,vowelstep7.wav,None,1000,26,902287,333,75.285
H,2,828278,sinestep7.wav,None,1000,26,904286,334,77.285
H,2,828278,sinestep1.wav,None,1000,26,906286,333,79.285
H,2,828278,sinestep7.wav,None,1000,26,908286,344,81.285
H,2,828278,sinestep1.wav,None,1000,26,910286,344,83.285
H,2,828278,vowelstep5.wav,None,1000,26,912286,344,85.285
H,2,828278,sinestep3.wav,None,1000,26,914287,353,87.285
H,2,828278,vowelstep5.wav,None,1000,26,916287,332,89.285
H,2,828278,silence.wav,None,1000,26,918287,333,91.285
H,2,828278,silence.wav,None,1000,26,920287,334,93.285
H,2,828278,sinestep5.wav,None,1000,26,922287,334,95.285
H,2,828278,sinestep3.wav,None,1000,26,924287,343,97.285
H,2,828278,sinestep7.wav,None,1000,26,926287,343,99.285
H,2,828278,sinestep7_catch.wav,2,129,26,928287,354,101.285
H,2,828278,silence.wav,None,1000,26,930286,1193,103.285
H,2,828278,sinestep3.wav,None,1000,26,932287,331,105.285
H,2,828278,silence.wav,None,1000,26,934287,332,107.285
H,2,828278,vowelstep1.wav,None,1000,26,936287,342,109.285
H,2,828278,vowelstep7.wav,None,1000,26,938287,342,111.285
H,2,828278,sinestep5.wav,None,1000,26,940287,342,113.285
H,2,828278,silence.wav,None,1000,26,942287,342,115.285
H,2,828278,vowelstep7.wav,None,1000,26,944287,332,117.285
H,2,828278,vowelstep3.wav,None,1000,26,946287,332,119.285
H,2,828278,sinestep5.wav,None,1000,26,948288,332,121.285
H,2,828278,sinestep1.wav,None,1000,26,950288,332,123.285
H,2,828278,vowelstep3.wav,None,1000,26,952288,341,125.285
H,2,828278,vowelstep3.wav,None,1000,26,954287,342,127.285
H,2,828278,vowelstep5.wav,None,1000,26,956287,351,129.285
H,2,828278,vowelstep1.wav,None,1000,26,958287,350,131.285
H,2,828278,vowelstep7.wav,None,1000,26,960287,351,133.285
H,2,828278,vowelstep3.wav,None,1000,26,962287,351,135.285
H,2,828278,vowelstep5.wav,None,1000,26,964287,341,137.285
H,2,828278,vowelstep5.wav,None,1000,26,966288,340,139.285
H,2,828278,sinestep7.wav,None,1000,26,968288,339,141.285
H,2,828278,vowelstep1.wav,None,1000,26,970288,339,143.285
H,2,828278,sinestep3.wav,None,1000,26,972288,350,145.285
H,2,828278,sinestep1.wav,None,1000,26,974288,350,147.285
H,2,828278,vowelstep1.wav,None,1000,26,976288,351,149.285
H,2,828278,sinestep5_catch.wav,2,316,26,978287,360,151.285
H,2,828278,sinestep7.wav,None,1000,26,980287,1023,153.285
H,2,828278,sinestep3_catch.wav,2,112,26,982287,340,155.285
H,2,828278,sinestep7.wav,None,1000,26,984288,1235,157.285
H,2,828278,sinestep5.wav,None,1000,26,986288,349,159.285
H,2,828278,silence.wav,None,1000,26,988288,349,161.285
H,2,828278,sinestep1_catch.wav,2,637,26,990288,360,163.285
H,2,828278,vowelstep7.wav,None,1000,26,992288,691,165.285
H,2,828278,vowelstep7.wav,None,1000,26,994288,338,167.285
H,2,828278,sinestep7.wav,None,1000,26,996288,338,169.285
H,2,828278,sinestep3.wav,None,1000,26,998288,338,171.285
H,2,828278,sinestep5.wav,None,1000,26,1000288,349,173.285
H,2,828278,vowelstep1_catch.wav,None,1000,26,1002288,347,175.285
H,2,828278,vowelstep1.wav,None,1000,26,1004288,348,177.285
H,2,828278,sinestep3.wav,None,1000,26,1006288,355,179.285
H,2,828278,sinestep3.wav,None,1000,26,1008288,337,181.285
H,2,828278,vowelstep5.wav,None,1000,26,1010288,339,183.285
H,2,828278,sinestep1.wav,None,1000,26,1012288,337,185.285
H,2,828278,sinestep1.wav,None,1000,26,1014288,347,187.285
H,2,828278,vowelstep7.wav,None,1000,26,1016288,346,189.285
H,2,828278,sinestep1.wav,None,1000,26,1018289,357,191.285
H,2,828278,sinestep5.wav,None,1000,26,1020289,357,193.285
H,2,828278,vowelstep3_catch.wav,None,1000,26,1022289,326,195.285
H,2,828278,sinestep1.wav,None,1000,26,1024289,337,197.285
H,2,828278,silence.wav,None,1000,26,1026288,337,199.285
H,2,828278,vowelstep1.wav,None,1000,26,1028288,346,201.285
H,2,828278,vowelstep5_catch.wav,None,1000,26,1030288,346,203.285
H,2,828278,sinestep5.wav,None,1000,26,1032288,346,205.285
H,2,828278,sinestep1.wav,None,1000,26,1034288,356,207.285
H,2,828278,silence.wav,None,1000,26,1036289,334,209.285
H,2,828278,sinestep3.wav,None,1000,26,1038289,335,211.285
H,2,828278,silence.wav,None,1000,26,1040289,335,213.285
H,2,828278,vowelstep7_catch.wav,None,1000,26,1042289,345,215.285
H,2,828278,vowelstep5.wav,None,1000,26,1044289,345,217.285
H,2,828278,sinestep7.wav,None,1000,26,1046289,346,219.285
H,2,828278,silence.wav,None,1000,26,1048289,355,221.285
H,2,828278,sinestep1.wav,None,1000,26,1050288,335,223.285
H,2,828278,silence.wav,None,1000,26,1052288,337,225.285
H,2,828278,silence.wav,None,1000,26,1054289,335,227.285
H,2,828278,silence.wav,None,1000,26,1056289,344,229.285
H,2,828278,silence.wav,None,1000,26,1058289,344,231.285
H,2,828278,sinestep5.wav,None,1000,26,1060289,344,233.285
H,2,828278,silence.wav,None,1000,26,1062289,354,235.285
H,2,828278,vowelstep3.wav,None,1000,26,1064289,334,237.285
H,2,828278,silence.wav,None,1000,26,1066289,334,239.285
H,2,828278,silence.wav,None,1000,26,1068289,335,241.285
H,2,828278,vowelstep1_catch.wav,None,1000,26,1070289,344,243.285
H,2,828278,vowelstep5.wav,None,1000,26,1072290,343,245.285
H,2,828278,vowelstep7.wav,None,1000,26,1074289,343,247.285
H,2,828278,vowelstep3_catch.wav,None,1000,26,1076289,343,249.285
H,2,828278,vowelstep1.wav,None,1000,26,1078289,298,251.285
H,2,828278,sinestep3.wav,None,1000,26,1080289,334,253.285
H,2,828278,vowelstep5_catch.wav,None,1000,26,1082289,333,255.285
H,2,828278,vowelstep5.wav,None,1000,26,1084289,343,257.285
H,2,828278,silence.wav,None,1000,26,1086289,343,259.285
H,2,828278,vowelstep7.wav,None,1000,26,1088290,342,261.285
H,2,828278,sinestep5.wav,None,1000,26,1090290,351,263.285
H,2,828278,vowelstep5.wav,None,1000,26,1092290,331,265.285
H,2,828278,vowelstep7.wav,None,1000,26,1094290,333,267.285
H,2,828278,vowelstep3.wav,None,1000,26,1096290,331,269.285
H,2,828278,vowelstep3.wav,None,1000,26,1098289,342,271.285
H,2,828278,silence.wav,None,1000,26,1100289,342,273.285
H,2,828278,vowelstep3.wav,None,1000,26,1102289,342,275.285
H,2,828278,sinestep1.wav,None,1000,26,1104289,342,277.285
H,2,828278,silence.wav,None,1000,26,1106290,332,279.285
H,2,828278,sinestep1.wav,None,1000,26,1108290,331,281.285
H,2,828278,vowelstep3.wav,None,1000,26,1110290,331,283.285
H,2,828278,silence.wav,None,1000,26,1112290,331,285.285
H,2,828278,vowelstep5.wav,None,1000,26,1114290,341,287.285
H,2,828278,vowelstep5.wav,None,1000,26,1116290,341,289.285
H,2,828278,vowelstep1.wav,None,1000,26,1118290,341,291.285
H,2,828278,sinestep5.wav,None,1000,26,1120290,321,293.285
H,2,828278,vowelstep7.wav,None,1000,26,1122289,331,295.285
H,2,828278,vowelstep1.wav,None,1000,26,1124290,331,297.285
H,2,828278,vowelstep7.wav,None,1000,26,1126290,330,299.285
H,2,828278,vowelstep3.wav,None,1000,26,1128290,341,301.285
H,2,828278,sinestep1.wav,None,1000,26,1130290,340,303.285
H,2,828278,sinestep5.wav,None,1000,26,1132290,340,305.285
H,2,828278,vowelstep5.wav,None,1000,26,1134290,321,307.285
H,2,828278,sinestep3.wav,None,1000,26,1136290,330,309.285
H,2,828278,vowelstep7.wav,None,1000,26,1138290,330,311.285
H,2,828278,sinestep7.wav,None,1000,26,1140290,330,313.285
H,2,828278,sinestep5.wav,None,1000,26,1142291,338,315.285
H,2,828278,sinestep3.wav,None,1000,26,1144291,339,317.285
H,2,828278,sinestep1.wav,None,1000,26,1146291,339,319.285
E,3,1213205,vowelstep7.wav,None,1000,26,1213208,0,1.285
E,3,1213205,sinestep3.wav,None,1000,26,1215208,351,3.285
E,3,1213205,sinestep5.wav,None,1000,26,1217208,362,5.285
E,3,1213205,sinestep1.wav,None,1000,26,1219208,332,7.285
E,3,1213205,sinestep5.wav,None,1000,26,1221225,342,9.285
E,3,1213205,silence.wav,None,1000,26,1223225,321,11.285
E,3,1213205,vowelstep1.wav,None,1000,26,1225225,322,13.285
E,3,1213205,vowelstep7.wav,None,1000,26,1227224,332,15.285
E,3,1213205,vowelstep1.wav,None,1000,26,1229209,332,17.285
E,3,1213205,sinestep1_catch.wav,2,183,26,1231209,362,19.285
E,3,1213205,vowelstep5.wav,None,1000,26,1233209,1156,21.285
E,3,1213205,sinestep5.wav,None,1000,26,1235208,341,23.285
E,3,1213205,vowelstep5.wav,None,1000,26,1237208,341,25.285
E,3,1213205,vowelstep3.wav,None,1000,26,1239225,350,27.285
E,3,1213205,sinestep1.wav,None,1000,26,1241225,321,29.285
E,3,1213205,vowelstep5.wav,None,1000,26,1243225,328,31.285
E,3,1213205,silence.wav,None,1000,26,1245208,331,33.285
E,3,1213205,silence.wav,None,1000,26,1247209,340,35.285
E,3,1213205,sinestep3.wav,None,1000,26,1249209,340,37.285
E,3,1213205,sinestep3.wav,None,1000,26,1251209,340,39.285
E,3,1213205,sinestep3.wav,None,1000,26,1253209,341,41.285
E,3,1213205,sinestep1.wav,None,1000,26,1255209,349,43.285
E,3,1213205,vowelstep1.wav,None,1000,26,1257209,350,45.285
E,3,1213205,sinestep1.wav,None,1000,26,1259225,359,47.285
E,3,1213205,vowelstep7.wav,None,1000,26,1261208,330,49.285
E,3,1213205,vowelstep5.wav,None,1000,26,1263209,339,51.285
E,3,1213205,sinestep7.wav,None,1000,26,1265209,338,53.285
E,3,1213205,sinestep1.wav,None,1000,26,1267209,340,55.285
E,3,1213205,vowelstep5.wav,None,1000,26,1269209,349,57.285
E,3,1213205,sinestep3.wav,None,1000,26,1271209,348,59.285
E,3,1213205,vowelstep1.wav,None,1000,26,1273209,348,61.285
E,3,1213205,vowelstep5.wav,None,1000,26,1275209,339,63.285
E,3,1213205,vowelstep3.wav,None,1000,26,1277209,339,65.285
E,3,1213205,sinestep1.wav,None,1000,26,1279209,339,67.285
E,3,1213205,vowelstep3.wav,None,1000,26,1281210,339,69.285
E,3,1213205,silence.wav,None,1000,26,1283210,348,71.285
E,3,1213205,vowelstep3.wav,None,1000,26,1285209,347,73.285
E,3,1213205,sinestep3_catch.wav,2,503,26,1287209,342,75.285
E,3,1213205,sinestep3.wav,None,1000,26,1289209,824,77.285
E,3,1213205,vowelstep3.wav,None,1000,26,1291209,338,79.285
E,3,1213205,vowelstep7.wav,None,1000,26,1293209,338,81.285
E,3,1213205,silence.wav,None,1000,26,1295209,348,83.285
E,3,1213205,sinestep3.wav,None,1000,26,1297209,348,85.285
E,3,1213205,silence.wav,None,1000,26,1299210,345,87.285
E,3,1213205,sinestep1.wav,None,1000,26,1301210,347,89.285
E,3,1213205,sinestep5_catch.wav,2,303,26,1303210,326,91.285
E,3,1213205,vowelstep3.wav,None,1000,26,1305210,1033,93.285
E,3,1213205,sinestep5.wav,None,1000,26,1307210,336,95.285
E,3,1213205,vowelstep7.wav,None,1000,26,1309209,337,97.285
E,3,1213205,sinestep1.wav,None,1000,26,1311209,347,99.285
E,3,1213205,sinestep5.wav,None,1000,26,1313209,344,101.285
E,3,1213205,sinestep5.wav,None,1000,26,1315210,347,103.285
E,3,1213205,vowelstep7.wav,None,1000,26,1317210,355,105.285
E,3,1213205,vowelstep3.wav,None,1000,26,1319210,333,107.285
E,3,1213205,vowelstep7.wav,None,1000,26,1321210,335,109.285
E,3,1213205,sinestep5.wav,None,1000,26,1323210,335,111.285
E,3,1213205,vowelstep3.wav,None,1000,26,1325210,346,113.285
E,3,1213205,vowelstep7.wav,None,1000,26,1327210,341,115.285
E,3,1213205,sinestep3.wav,None,1000,26,1329210,346,117.285
E,3,1213205,vowelstep7.wav,None,1000,26,1331210,355,119.285
E,3,1213205,silence.wav,None,1000,26,1333210,335,121.285
E,3,1213205,silence.wav,None,1000,26,1335210,334,123.285
E,3,1213205,sinestep7.wav,2,123,26,1337210,332,125.285
E,3,1213205,sinestep7_catch.wav,2,189,26,1339210,1221,127.285
E,3,1213205,sinestep7.wav,None,1000,26,1341210,1156,129.285
E,3,1213205,silence.wav,None,1000,26,1343210,345,131.285
E,3,1213205,sinestep7_catch.wav,2,169,26,1345210,343,133.285
E,3,1213205,sinestep7.wav,None,1000,26,1347210,1165,135.285
E,3,1213205,sinestep5_catch.wav,2,84,26,1349210,334,137.285
E,3,1213205,sinestep1.wav,None,1000,26,1351211,1249,139.285
E,3,1213205,sinestep1.wav,None,1000,26,1353211,333,141.285
E,3,1213205,sinestep1.wav,None,1000,26,1355211,344,143.285
E,3,1213205,sinestep3.wav,None,1000,26,1357210,344,145.285
E,3,1213205,vowelstep5.wav,None,1000,26,1359210,354,147.285
E,3,1213205,silence.wav,None,1000,26,1361210,353,149.285
E,3,1213205,sinestep3_catch.wav,2,142,26,1363210,353,151.285
E,3,1213205,silence.wav,None,1000,26,1365210,1221,153.285
E,3,1213205,sinestep7.wav,None,1000,26,1367210,343,155.285
E,3,1213205,sinestep5.wav,None,1000,26,1369211,342,157.285
E,3,1213205,silence.wav,None,1000,26,1371211,341,159.285
E,3,1213205,vowelstep5.wav,None,1000,26,1373211,352,161.285
E,3,1213205,vowelstep1.wav,None,1000,26,1375211,353,163.285
E,3,1213205,vowelstep3.wav,None,1000,26,1377211,352,165.285
E,3,1213205,sinestep5.wav,None,1000,26,1379211,362,167.285
E,3,1213205,sinestep7.wav,None,1000,26,1381210,331,169.285
E,3,1213205,vowelstep1.wav,None,1000,26,1383210,342,171.285
E,3,1213205,vowelstep7.wav,None,1000,26,1385211,342,173.285
E,3,1213205,sinestep3.wav,None,1000,26,1387211,351,175.285
E,3,1213205,silence.wav,None,1000,26,1389211,351,177.285
E,3,1213205,sinestep1_catch.wav,2,315,26,1391211,352,179.285
E,3,1213205,sinestep7.wav,None,1000,26,1393211,1046,181.285
E,3,1213205,vowelstep1.wav,None,1000,26,1395211,332,183.285
E,3,1213205,sinestep5.wav,None,1000,26,1397211,341,185.285
E,3,1213205,sinestep5.wav,None,1000,26,1399211,341,187.285
E,3,1213205,vowelstep1.wav,None,1000,26,1401211,347,189.285
E,3,1213205,sinestep7.wav,None,1000,26,1403212,351,191.285
E,3,1213205,sinestep3.wav,None,1000,26,1405211,352,193.285
E,3,1213205,sinestep7.wav,None,1000,26,1407211,351,195.285
E,3,1213205,silence.wav,None,1000,26,1409211,331,197.285
E,3,1213205,vowelstep1.wav,None,1000,26,1411211,341,199.285
E,3,1213205,sinestep1.wav,None,1000,26,1413211,339,201.285
E,3,1213205,vowelstep1.wav,None,1000,26,1415211,340,203.285
E,3,1213205,vowelstep1.wav,None,1000,26,1417211,349,205.285
E,3,1213205,vowelstep1_catch.wav,None,1000,26,1419211,350,207.285
E,3,1213205,vowelstep1.wav,None,1000,26,1421212,351,209.285
E,3,1213205,vowelstep1.wav,None,1000,26,1423212,329,211.285
E,3,1213205,silence.wav,None,1000,26,1425212,339,213.285
E,3,1213205,sinestep7.wav,None,1000,26,1427212,339,215.285
E,3,1213205,vowelstep7.wav,None,1000,26,1429211,339,217.285
E,3,1213205,vowelstep3_catch.wav,None,1000,26,1431211,349,219.285
E,3,1213205,vowelstep5.wav,None,1000,26,1433211,348,221.285
E,3,1213205,sinestep3.wav,None,1000,26,1435211,349,223.285
E,3,1213205,silence.wav,None,1000,26,1437211,359,225.285
E,3,1213205,sinestep1.wav,None,1000,26,1439212,338,227.285
E,3,1213205,sinestep5.wav,None,1000,26,1441212,338,229.285
E,3,1213205,sinestep5.wav,None,1000,26,1443212,338,231.285
E,3,1213205,sinestep3.wav,None,1000,26,1445212,339,233.285
E,3,1213205,sinestep5.wav,None,1000,26,1447212,348,235.285
E,3,1213205,vowelstep3.wav,None,1000,26,1449212,345,237.285
E,3,1213205,sinestep7.wav,None,1000,26,1451212,358,239.285
E,3,1213205,sinestep7.wav,None,1000,26,1453211,338,241.285
E,3,1213205,silence.wav,None,1000,26,1455212,338,243.285
E,3,1213205,sinestep3.wav,None,1000,26,1457212,337,245.285
E,3,1213205,sinestep3.wav,None,1000,26,1459212,347,247.285
E,3,1213205,vowelstep3.wav,None,1000,26,1461212,344,249.285
E,3,1213205,silence.wav,None,1000,26,1463212,347,251.285
E,3,1213205,sinestep7.wav,None,1000,26,1465212,356,253.285
E,3,1213205,silence.wav,None,1000,26,1467212,337,255.285
E,3,1213205,vowelstep7.wav,None,1000,26,1469212,337,257.285
E,3,1213205,vowelstep3.wav,None,1000,26,1471212,337,259.285
E,3,1213205,silence.wav,None,1000,26,1473213,347,261.285
E,3,1213205,vowelstep3.wav,None,1000,26,1475213,346,263.285
E,3,1213205,vowelstep1.wav,None,1000,26,1477212,344,265.285
E,3,1213205,vowelstep5.wav,None,1000,26,1479212,355,267.285
E,3,1213205,silence.wav,None,1000,26,1481212,335,269.285
E,3,1213205,vowelstep3.wav,None,1000,26,1483212,336,271.285
E,3,1213205,sinestep1.wav,None,1000,26,1485212,336,273.285
E,3,1213205,vowelstep5_catch.wav,None,1000,26,1487212,336,275.285
E,3,1213205,sinestep7.wav,None,1000,26,1489212,346,277.285
E,3,1213205,sinestep7.wav,None,1000,26,1491213,343,279.285
E,3,1213205,vowelstep7.wav,None,1000,26,1493213,355,281.285
E,3,1213205,silence.wav,None,1000,26,1495213,325,283.285
E,3,1213205,sinestep5.wav,None,1000,26,1497213,334,285.285
E,3,1213205,silence.wav,None,1000,26,1499213,330,287.285
E,3,1213205,silence.wav,None,1000,26,1501213,345,289.285
E,3,1213205,vowelstep5.wav,None,1000,26,1503212,345,291.285
E,3,1213205,vowelstep5.wav,None,1000,26,1505212,345,293.285
E,3,1213205,silence.wav,None,1000,26,1507212,346,295.285
E,3,1213205,vowelstep5.wav,None,1000,26,1509213,354,297.285
E,3,1213205,vowelstep7_catch.wav,None,1000,26,1511213,334,299.285
E,3,1213205,vowelstep7_catch.wav,None,1000,26,1513213,333,301.285
E,3,1213205,vowelstep5.wav,None,1000,26,1515213,334,303.285
E,3,1213205,sinestep1.wav,None,1000,26,1517213,344,305.285
E,3,1213205,vowelstep3.wav,None,1000,26,1519213,345,307.285
E,3,1213205,vowelstep5_catch.wav,None,1000,26,1521213,350,309.285
E,3,1213205,vowelstep7.wav,None,1000,26,1523213,323,311.285
E,3,1213205,vowelstep5.wav,None,1000,26,1525214,333,313.285
E,3,1213205,vowelstep7.wav,None,1000,26,1527213,333,315.285
E,3,1213205,vowelstep1.wav,None,1000,26,1529213,343,317.285
E,3,1213205,vowelstep3_catch.wav,None,1000,26,1531213,344,319.285
B,4,1594737,vowelstep5.wav,None,1000,26,1594747,0,1.285
B,4,1594737,silence.wav,None,1000,26,1596748,350,3.285
B,4,1594737,sinestep7.wav,None,1000,26,1598748,328,5.285
B,4,1594737,vowelstep1_catch.wav,None,1000,26,1600748,331,7.285
B,4,1594737,vowelstep7.wav,None,1000,26,1602748,330,9.285
B,4,1594737,vowelstep3.wav,None,1000,26,1604748,341,11.285
B,4,1594737,vowelstep7.wav,None,1000,26,1606747,340,13.285
B,4,1594737,vowelstep5.wav,None,1000,26,1608747,340,15.285
B,4,1594737,vowelstep7.wav,None,1000,26,1610747,351,17.285
B,4,1594737,vowelstep3.wav,None,1000,26,1612748,331,19.285
B,4,1594737,silence.wav,None,1000,26,1614748,329,21.285
B,4,1594737,silence.wav,None,1000,26,1616748,330,23.285
B,4,1594737,sinestep5.wav,None,1000,26,1618748,339,25.285
B,4,1594737,sinestep1.wav,None,1000,26,1620748,340,27.285
B,4,1594737,vowelstep7.wav,None,1000,26,1622748,340,29.285
B,4,1594737,sinestep5.wav,None,1000,26,1624748,350,31.285
B,4,1594737,vowelstep1.wav,None,1000,26,1626748,321,33.285
B,4,1594737,vowelstep7.wav,None,1000,26,1628748,330,35.285
B,4,1594737,vowelstep3.wav,None,1000,26,1630748,330,37.285
B,4,1594737,sinestep5.wav,None,1000,26,1632748,339,39.285
B,4,1594737,vowelstep1.wav,None,1000,26,1634748,338,41.285
B,4,1594737,sinestep3.wav,None,1000,26,1636748,339,43.285
B,4,1594737,vowelstep5.wav,None,1000,26,1638748,348,45.285
B,4,1594737,vowelstep7.wav,None,1000,26,1640748,319,47.285
B,4,1594737,vowelstep3.wav,None,1000,26,1642748,329,49.285
B,4,1594737,sinestep7.wav,None,1000,26,1644748,329,51.285
B,4,1594737,sinestep3.wav,None,1000,26,1646748,339,53.285
B,4,1594737,sinestep1.wav,None,1000,26,1648749,339,55.285
B,4,1594737,sinestep1.wav,None,1000,26,1650749,337,57.285
B,4,1594737,sinestep5.wav,None,1000,26,1652749,347,59.285
B,4,1594737,vowelstep5.wav,None,1000,26,1654748,318,61.285
B,4,1594737,vowelstep3_catch.wav,None,1000,26,1656748,328,63.285
B,4,1594737,vowelstep7.wav,None,1000,26,1658748,327,65.285
B,4,1594737,sinestep1.wav,None,1000,26,1660748,335,67.285
B,4,1594737,vowelstep5.wav,None,1000,26,1662748,337,69.285
B,4,1594737,vowelstep5_catch.wav,None,1000,26,1664748,338,71.285
B,4,1594737,vowelstep7.wav,None,1000,26,1666749,336,73.285
B,4,1594737,sinestep3.wav,None,1000,26,1668749,326,75.285
B,4,1594737,vowelstep7_catch.wav,None,1000,26,1670749,326,77.285
B,4,1594737,sinestep5.wav,None,1000,26,1672749,326,79.285
B,4,1594737,vowelstep5.wav,None,1000,26,1674749,337,81.285
B,4,1594737,silence.wav,None,1000,26,1676749,337,83.285
B,4,1594737,silence.wav,None,1000,26,1678749,336,85.285
B,4,1594737,vowelstep3.wav,None,1000,26,1680748,346,87.285
B,4,1594737,silence.wav,None,1000,26,1682749,345,89.285
B,4,1594737,sinestep1.wav,None,1000,26,1684749,346,91.285
B,4,1594737,sinestep1.wav,None,1000,26,1686749,346,93.285
B,4,1594737,sinestep5.wav,None,1000,26,1688749,355,95.285
B,4,1594737,vowelstep7.wav,None,1000,26,1690749,335,97.285
B,4,1594737,sinestep5.wav,None,1000,26,1692749,336,99.285
B,4,1594737,sinestep5.wav,None,1000,26,1694749,335,101.285
B,4,1594737,silence.wav,None,1000,26,1696749,345,103.285
B,4,1594737,vowelstep1.wav,None,1000,26,1698749,345,105.285
B,4,1594737,silence.wav,None,1000,26,1700750,345,107.285
B,4,1594737,sinestep1.wav,None,1000,26,1702750,354,109.285
B,4,1594737,vowelstep7.wav,None,1000,26,1704749,334,111.285
B,4,1594737,silence.wav,None,1000,26,1706749,334,113.285
B,4,1594737,sinestep1.wav,None,1000,26,1708749,335,115.285
B,4,1594737,vowelstep3.wav,None,1000,26,1710749,335,117.285
B,4,1594737,vowelstep5.wav,None,1000,26,1712749,344,119.285
B,4,1594737,silence.wav,None,1000,26,1714749,345,121.285
B,4,1594737,sinestep3.wav,None,1000,26,1716749,354,123.285
B,4,1594737,sinestep5.wav,None,1000,26,1718750,325,125.285
B,4,1594737,silence.wav,None,1000,26,1720750,333,127.285
B,4,1594737,vowelstep5.wav,None,1000,26,1722750,333,129.285
B,4,1594737,sinestep3.wav,None,1000,26,1724750,342,131.285
B,4,1594737,sinestep5.wav,None,1000,26,1726750,343,133.285
B,4,1594737,sinestep5.wav,None,1000,26,1728749,343,135.285
B,4,1594737,sinestep7.wav,None,1000,26,1730749,353,137.285
B,4,1594737,sinestep7.wav,None,1000,26,1732749,329,139.285
B,4,1594737,vowelstep5.wav,None,1000,26,1734749,333,141.285
B,4,1594737,sinestep1.wav,None,1000,26,1736750,332,143.285
B,4,1594737,vowelstep7.wav,None,1000,26,1738750,342,145.285
B,4,1594737,sinestep7.wav,None,1000,26,1740750,342,147.285
B,4,1594737,vowelstep5.wav,None,1000,26,1742750,342,149.285
B,4,1594737,vowelstep1.wav,None,1000,26,1744750,352,151.285
B,4,1594737,sinestep3.wav,None,1000,26,1746750,322,153.285
B,4,1594737,silence.wav,None,1000,26,1748750,331,155.285
B,4,1594737,silence.wav,None,1000,26,1750750,333,157.285
B,4,1594737,sinestep7_catch.wav,2,391,26,1752750,340,159.285
B,4,1594737,vowelstep5.wav,None,1000,26,1754750,950,161.285
B,4,1594737,sinestep7.wav,None,1000,26,1756750,341,163.285
B,4,1594737,vowelstep5.wav,None,1000,26,1758750,352,165.285
B,4,1594737,vowelstep3.wav,None,1000,26,1760750,331,167.285
B,4,1594737,silence.wav,None,1000,26,1762750,331,169.285
B,4,1594737,sinestep3.wav,None,1000,26,1764750,331,171.285
B,4,1594737,sinestep7_catch.wav,2,278,26,1766750,331,173.285
B,4,1594737,sinestep3.wav,None,1000,26,1768750,1062,175.285
B,4,1594737,sinestep5_catch.wav,2,52,26,1770751,341,177.285
B,4,1594737,vowelstep5.wav,None,1000,26,1772751,1297,179.285
B,4,1594737,silence.wav,None,1000,26,1774751,350,181.285
B,4,1594737,sinestep7.wav,None,1000,26,1776750,330,183.285
B,4,1594737,silence.wav,None,1000,26,1778750,330,185.285
B,4,1594737,sinestep3.wav,None,1000,26,1780750,329,187.285
B,4,1594737,silence.wav,None,1000,26,1782750,339,189.285
B,4,1594737,vowelstep7.wav,None,1000,26,1784750,340,191.285
B,4,1594737,vowelstep3.wav,None,1000,26,1786750,341,193.285
B,4,1594737,vowelstep3.wav,None,1000,26,1788751,322,195.285
B,4,1594737,sinestep7.wav,None,1000,26,1790751,329,197.285
B,4,1594737,sinestep7.wav,None,1000,26,1792751,329,199.285
B,4,1594737,sinestep3.wav,None,1000,26,1794751,339,201.285
B,4,1594737,sinestep3_catch.wav,2,302,26,1796751,338,203.285
B,4,1594737,sinestep1.wav,None,1000,26,1798751,1036,205.285
B,4,1594737,sinestep1.wav,None,1000,26,1800750,339,207.285
B,4,1594737,sinestep3.wav,None,1000,26,1802750,349,209.285
B,4,1594737,silence.wav,None,1000,26,1804751,307,211.285
B,4,1594737,silence.wav,None,1000,26,1806751,327,213.285
B,4,1594737,sinestep5_catch.wav,2,256,26,1808751,328,215.285
B,4,1594737,sinestep7.wav,None,1000,26,1810751,1081,217.285
B,4,1594737,sinestep7.wav,None,1000,26,1812751,337,219.285
B,4,1594737,vowelstep3.wav,None,1000,26,1814751,336,221.285
B,4,1594737,sinestep1_catch.wav,2,328,26,1816751,317,223.285
B,4,1594737,vowelstep5.wav,None,1000,26,1818751,999,225.285
B,4,1594737,sinestep1.wav,None,1000,26,1820751,328,227.285
B,4,1594737,vowelstep1.wav,None,1000,26,1822752,336,229.285
B,4,1594737,vowelstep1.wav,None,1000,26,1824751,337,231.285
B,4,1594737,sinestep5.wav,None,1000,26,1826751,336,233.285
B,4,1594737,silence.wav,None,1000,26,1828751,336,235.285
B,4,1594737,silence.wav,None,1000,26,1830751,346,237.285
B,4,1594737,vowelstep1.wav,None,1000,26,1832751,327,239.285
B,4,1594737,vowelstep1.wav,None,1000,26,1834751,327,241.285
B,4,1594737,silence.wav,None,1000,26,1836751,328,243.285
B,4,1594737,vowelstep1_catch.wav,None,1000,26,1838751,336,245.285
B,4,1594737,sinestep7.wav,None,1000,26,1840752,336,247.285
B,4,1594737,sinestep1.wav,None,1000,26,1842752,336,249.285
B,4,1594737,vowelstep1.wav,None,1000,26,1844752,345,251.285
B,4,1594737,vowelstep3.wav,None,1000,26,1846752,326,253.285
B,4,1594737,sinestep3.wav,None,1000,26,1848752,325,255.285
B,4,1594737,silence.wav,None,1000,26,1850751,326,257.285
B,4,1594737,vowelstep3.wav,None,1000,26,1852751,334,259.285
B,4,1594737,silence.wav,None,1000,26,1854751,336,261.285
B,4,1594737,vowelstep3.wav,None,1000,26,1856751,338,263.285
B,4,1594737,sinestep5.wav,None,1000,26,1858752,346,265.285
B,4,1594737,vowelstep3_catch.wav,None,1000,26,1860752,324,267.285
B,4,1594737,sinestep3.wav,None,1000,26,1862752,324,269.285
B,4,1594737,sinestep1.wav,None,1000,26,1864752,324,271.285
B,4,1594737,vowelstep3.wav,None,1000,26,1866752,331,273.285
B,4,1594737,vowelstep1.wav,None,1000,26,1868752,335,275.285
B,4,1594737,vowelstep5_catch.wav,None,1000,26,1870752,334,277.285
B,4,1594737,vowelstep1.wav,None,1000,26,1872751,336,279.285
B,4,1594737,vowelstep5.wav,None,1000,26,1874752,325,281.285
B,4,1594737,sinestep7.wav,None,1000,26,1876752,324,283.285
B,4,1594737,vowelstep7.wav,None,1000,26,1878752,323,285.285
B,4,1594737,vowelstep1_catch.wav,None,1000,26,1880752,323,287.285
B,4,1594737,sinestep1.wav,None,1000,26,1882752,334,289.285
B,4,1594737,vowelstep1.wav,None,1000,26,1884752,334,291.285
B,4,1594737,sinestep5.wav,None,1000,26,1886752,344,293.285
B,4,1594737,vowelstep7.wav,None,1000,26,1888752,323,295.285
B,4,1594737,sinestep7.wav,None,1000,26,1890752,324,297.285
B,4,1594737,vowelstep7_catch.wav,None,1000,26,1892753,323,299.285
B,4,1594737,sinestep3.wav,None,1000,26,1894753,322,301.285
B,4,1594737,vowelstep3.wav,None,1000,26,1896753,332,303.285
B,4,1594737,sinestep5.wav,None,1000,26,1898752,334,305.285
B,4,1594737,vowelstep1.wav,None,1000,26,1900752,333,307.285
B,4,1594737,vowelstep7.wav,None,1000,26,1902752,323,309.285
B,4,1594737,vowelstep1.wav,None,1000,26,1904752,323,311.285
B,4,1594737,sinestep7.wav,None,1000,26,1906752,322,313.285
B,4,1594737,sinestep3.wav,None,1000,26,1908752,322,315.285
B,4,1594737,silence.wav,None,1000,26,1910753,330,317.285
B,4,1594737,vowelstep1.wav,None,1000,26,1912753,332,319.285
G,5,1970910,vowelstep3.wav,None,1000,26,1970920,0,1.285
G,5,1970910,vowelstep3.wav,None,1000,26,1972920,342,3.285
G,5,1970910,vowelstep7.wav,None,1000,26,1974920,351,5.285
G,5,1970910,vowelstep3.wav,None,1000,26,1976920,331,7.285
G,5,1970910,sinestep5.wav,None,1000,26,1978920,331,9.285
G,5,1970910,sinestep1_catch.wav,2,285,26,1980921,331,11.285
G,5,1970910,silence.wav,None,1000,26,1982921,1054,13.285
G,5,1970910,silence.wav,None,1000,26,1984921,340,15.285
G,5,1970910,vowelstep7.wav,None,1000,26,1986920,340,17.285
G,5,1970910,vowelstep1.wav,None,1000,26,1988920,351,19.285
G,5,1970910,silence.wav,None,1000,26,1990920,320,21.285
G,5,1970910,sinestep1.wav,None,1000,26,1992920,329,23.285
G,5,1970910,vowelstep7.wav,None,1000,26,1994920,330,25.285
G,5,1970910,sinestep5.wav,None,1000,26,1996920,340,27.285
G,5,1970910,sinestep5.wav,None,1000,26,1998921,339,29.285
G,5,1970910,sinestep3.wav,None,1000,26,2000921,338,31.285
G,5,1970910,vowelstep3.wav,None,1000,26,2002921,329,33.285
G,5,1970910,silence.wav,None,1000,26,2004921,328,35.285
G,5,1970910,vowelstep1.wav,None,1000,26,2006921,329,37.285
G,5,1970910,sinestep7.wav,None,1000,26,2008921,329,39.285
G,5,1970910,vowelstep5.wav,None,1000,26,2010920,339,41.285
G,5,1970910,vowelstep3.wav,None,1000,26,2012920,339,43.285
G,5,1970910,sinestep1.wav,None,1000,26,2014921,338,45.285
G,5,1970910,sinestep7.wav,None,1000,26,2016921,347,47.285
G,5,1970910,sinestep1.wav,None,1000,26,2018921,328,49.285
G,5,1970910,sinestep5.wav,None,1000,26,2020921,328,51.285
G,5,1970910,vowelstep1.wav,None,1000,26,2022921,328,53.285
G,5,1970910,silence.wav,None,1000,26,2024921,338,55.285
G,5,1970910,sinestep5.wav,None,1000,26,2026921,338,57.285
G,5,1970910,vowelstep1.wav,None,1000,26,2028921,338,59.285
G,5,1970910,vowelstep3.wav,None,1000,26,2030921,348,61.285
G,5,1970910,sinestep3.wav,None,1000,26,2032922,327,63.285
G,5,1970910,sinestep1.wav,None,1000,26,2034921,327,65.285
G,5,1970910,vowelstep5.wav,None,1000,26,2036921,329,67.285
G,5,1970910,vowelstep3.wav,None,1000,26,2038921,337,69.285
G,5,1970910,vowelstep5.wav,None,1000,26,2040921,337,71.285
G,5,1970910,vowelstep7.wav,None,1000,26,2042921,336,73.285
G,5,1970910,vowelstep5.wav,None,1000,26,2044921,337,75.285
G,5,1970910,vowelstep5.wav,None,1000,26,2046921,325,77.285
G,5,1970910,sinestep3.wav,None,1000,26,2048921,326,79.285
G,5,1970910,sinestep3_catch.wav,2,195,26,2050922,326,81.285
G,5,1970910,sinestep5_catch.wav,2,76,26,2052922,1131,83.285
G,5,1970910,sinestep7.wav,None,1000,26,2054922,1260,85.285
G,5,1970910,sinestep7_catch.wav,2,111,26,2056922,336,87.285
G,5,1970910,sinestep7.wav,None,1000,26,2058921,1234,89.285
G,5,1970910,vowelstep1.wav,None,1000,26,2060921,316,91.285
G,5,1970910,vowelstep7.wav,None,1000,26,2062921,326,93.285
G,5,1970910,vowelstep3.wav,None,1000,26,2064921,326,95.285
G,5,1970910,sinestep3.wav,None,1000,26,2066921,335,97.285
G,5,1970910,sinestep1.wav,None,1000,26,2068922,336,99.285
G,5,1970910,sinestep1.wav,None,1000,26,2070922,335,101.285
G,5,1970910,sinestep5.wav,None,1000,26,2072922,334,103.285
G,5,1970910,vowelstep7.wav,None,1000,26,2074922,345,105.285
G,5,1970910,silence.wav,None,1000,26,2076922,325,107.285
G,5,1970910,sinestep3.wav,None,1000,26,2078922,325,109.285
G,5,1970910,vowelstep1.wav,None,1000,26,2080922,325,111.285
G,5,1970910,sinestep3.wav,None,1000,26,2082921,335,113.285
G,5,1970910,sinestep3.wav,None,1000,26,2084922,333,115.285
G,5,1970910,sinestep7.wav,None,1000,26,2086922,334,117.285
G,5,1970910,silence.wav,None,1000,26,2088922,344,119.285
G,5,1970910,vowelstep5.wav,None,1000,26,2090922,344,121.285
G,5,1970910,sinestep1_catch.wav,2,305,26,2092922,343,123.285
G,5,1970910,silence.wav,None,1000,26,2094922,1049,125.285
G,5,1970910,sinestep5.wav,None,1000,26,2096922,334,127.285
G,5,1970910,sinestep7.wav,None,1000,26,2098922,335,129.285
G,5,1970910,sinestep3.wav,None,1000,26,2100922,333,131.285
G,5,1970910,sinestep3.wav,None,1000,26,2102923,345,133.285
G,5,1970910,vowelstep5.wav,None,1000,26,2104923,343,135.285
G,5,1970910,sinestep3.wav,None,1000,26,2106922,342,137.285
G,5,1970910,sinestep3_catch.wav,None,1000,26,2108922,353,139.285
G,5,1970910,vowelstep1.wav,None,1000,26,2110922,332,141.285
G,5,1970910,vowelstep1.wav,None,1000,26,2112922,333,143.285
G,5,1970910,sinestep5.wav,None,1000,26,2114922,333,145.285
G,5,1970910,silence.wav,None,1000,26,2116922,332,147.285
G,5,1970910,sinestep3.wav,None,1000,26,2118922,343,149.285
G,5,1970910,silence.wav,None,1000,26,2120923,342,151.285
G,5,1970910,vowelstep3.wav,None,1000,26,2122923,352,153.285
G,5,1970910,sinestep5.wav,None,1000,26,2124923,321,155.285
G,5,1970910,vowelstep7.wav,None,1000,26,2126923,331,157.285
G,5,1970910,silence.wav,None,1000,26,2128923,332,159.285
G,5,1970910,sinestep5_catch.wav,2,266,26,2130922,342,161.285
G,5,1970910,vowelstep5.wav,None,1000,26,2132922,1076,163.285
G,5,1970910,silence.wav,None,1000,26,2134922,342,165.285
G,5,1970910,vowelstep7.wav,None,1000,26,2136923,352,167.285
G,5,1970910,vowelstep1.wav,None,1000,26,2138923,331,169.285
G,5,1970910,vowelstep1.wav,None,1000,26,2140923,330,171.285
G,5,1970910,vowelstep1.wav,None,1000,26,2142923,330,173.285
G,5,1970910,sinestep5.wav,None,1000,26,2144923,330,175.285
G,5,1970910,vowelstep3.wav,None,1000,26,2146923,341,177.285
G,5,1970910,sinestep1.wav,None,1000,26,2148923,341,179.285
G,5,1970910,vowelstep1.wav,None,1000,26,2150923,351,181.285
G,5,1970910,sinestep1.wav,None,1000,26,2152923,321,183.285
G,5,1970910,sinestep7.wav,None,1000,26,2154923,330,185.285
G,5,1970910,sinestep7.wav,None,1000,26,2156923,329,187.285
G,5,1970910,sinestep3.wav,None,1000,26,2158923,340,189.285
G,5,1970910,sinestep5.wav,None,1000,26,2160923,340,191.285
G,5,1970910,silence.wav,None,1000,26,2162923,340,193.285
G,5,1970910,sinestep7_catch.wav,2,99,26,2164923,350,195.285
G,5,1970910,vowelstep7_catch.wav,None,1000,26,2166923,1230,197.285
G,5,1970910,sinestep7.wav,None,1000,26,2168923,330,199.285
G,5,1970910,silence.wav,None,1000,26,2170923,329,201.285
G,5,1970910,sinestep7.wav,None,1000,26,2172924,339,203.285
G,5,1970910,sinestep3.wav,None,1000,26,2174924,339,205.285
G,5,1970910,vowelstep7.wav,None,1000,26,2176924,338,207.285
G,5,1970910,sinestep1.wav,None,1000,26,2178924,340,209.285
G,5,1970910,silence.wav,None,1000,26,2180923,349,211.285
G,5,1970910,silence.wav,None,1000,26,2182923,328,213.285
G,5,1970910,vowelstep7.wav,None,1000,26,2184923,328,215.285
G,5,1970910,vowelstep5.wav,None,1000,26,2186923,328,217.285
G,5,1970910,sinestep7.wav,None,1000,26,2188923,339,219.285
G,5,1970910,vowelstep5.wav,None,1000,26,2190924,338,221.285
G,5,1970910,vowelstep5_catch.wav,None,1000,26,2192924,337,223.285
G,5,1970910,vowelstep7.wav,None,1000,26,2194924,318,225.285
G,5,1970910,silence.wav,None,1000,26,2196924,328,227.285
G,5,1970910,silence.wav,None,1000,26,2198924,328,229.285
G,5,1970910,sinestep1.wav,None,1000,26,2200924,327,231.285
G,5,1970910,silence.wav,None,1000,26,2202924,338,233.285
G,5,1970910,vowelstep7.wav,None,1000,26,2204923,338,235.285
G,5,1970910,vowelstep5.wav,None,1000,26,2206924,338,237.285
G,5,1970910,vowelstep3.wav,None,1000,26,2208924,327,239.285
G,5,1970910,vowelstep3_catch.wav,None,1000,26,2210924,327,241.285
G,5,1970910,sinestep1.wav,None,1000,26,2212924,328,243.285
G,5,1970910,silence.wav,None,1000,26,2214924,326,245.285
G,5,1970910,sinestep7.wav,None,1000,26,2216924,336,247.285
G,5,1970910,sinestep1.wav,None,1000,26,2218924,337,249.285
G,5,1970910,sinestep3.wav,None,1000,26,2220924,336,251.285
G,5,1970910,vowelstep3.wav,None,1000,26,2222924,316,253.285
G,5,1970910,vowelstep1_catch.wav,None,1000,26,2224925,323,255.285
G,5,1970910,sinestep7.wav,None,1000,26,2226925,326,257.285
G,5,1970910,silence.wav,None,1000,26,2228924,326,259.285
G,5,1970910,sinestep5.wav,None,1000,26,2230924,335,261.285
G,5,1970910,sinestep5.wav,None,1000,26,2232924,335,263.285
G,5,1970910,vowelstep5.wav,None,1000,26,2234924,335,265.285
G,5,1970910,sinestep5.wav,None,1000,26,2236924,336,267.285
G,5,1970910,sinestep7.wav,None,1000,26,2238924,325,269.285
G,5,1970910,silence.wav,None,1000,26,2240924,325,271.285
G,5,1970910,vowelstep7_catch.wav,None,1000,26,2242925,325,273.285
G,5,1970910,vowelstep5.wav,None,1000,26,2244925,335,275.285
G,5,1970910,silence.wav,None,1000,26,2246925,334,277.285
G,5,1970910,sinestep3.wav,None,1000,26,2248925,334,279.285
G,5,1970910,vowelstep5.wav,None,1000,26,2250925,344,281.285
G,5,1970910,silence.wav,None,1000,26,2252924,324,283.285
G,5,1970910,vowelstep1.wav,None,1000,26,2254924,323,285.285
G,5,1970910,sinestep1.wav,None,1000,26,2256924,324,287.285
G,5,1970910,vowelstep3.wav,None,1000,26,2258924,334,289.285
G,5,1970910,vowelstep7.wav,None,1000,26,2260925,333,291.285
G,5,1970910,vowelstep7.wav,None,1000,26,2262925,333,293.285
G,5,1970910,sinestep1.wav,None,1000,26,2264925,343,295.285
G,5,1970910,vowelstep5.wav,None,1000,26,2266925,313,297.285
G,5,1970910,silence.wav,None,1000,26,2268925,323,299.285
G,5,1970910,sinestep1.wav,None,1000,26,2270925,323,301.285
G,5,1970910,vowelstep7.wav,None,1000,26,2272925,329,303.285
G,5,1970910,vowelstep5_catch.wav,None,1000,26,2274925,333,305.285
G,5,1970910,vowelstep3.wav,None,1000,26,2276925,317,307.285
G,5,1970910,vowelstep3_catch.wav,None,1000,26,2278925,333,309.285
G,5,1970910,sinestep7.wav,None,1000,26,2280925,322,311.285
G,5,1970910,sinestep5.wav,None,1000,26,2282925,322,313.285
G,5,1970910,vowelstep1.wav,None,1000,26,2284925,322,315.285
G,5,1970910,vowelstep3.wav,None,1000,26,2286925,322,317.285
G,5,1970910,vowelstep1.wav,None,1000,26,2288925,331,319.285
J,6,2345869,sinestep5_catch.wav,2,361,26,2345876,0,1.285
J,6,2345869,sinestep5.wav,None,1000,26,2347877,976,3.285
J,6,2345869,sinestep3.wav,None,1000,26,2349876,337,5.285
J,6,2345869,sinestep1.wav,None,1000,26,2351876,337,7.285
J,6,2345869,sinestep7.wav,None,1000,26,2353876,347,9.285
J,6,2345869,vowelstep3.wav,None,1000,26,2355876,346,11.285
J,6,2345869,sinestep1.wav,None,1000,26,2357876,346,13.285
J,6,2345869,vowelstep5.wav,None,1000,26,2359876,326,15.285
J,6,2345869,vowelstep3.wav,None,1000,26,2361876,337,17.285
J,6,2345869,vowelstep1.wav,None,1000,26,2363876,338,19.285
J,6,2345869,vowelstep1.wav,None,1000,26,2365877,336,21.285
J,6,2345869,sinestep3.wav,None,1000,26,2367877,346,23.285
J,6,2345869,silence.wav,None,1000,26,2369877,346,25.285
J,6,2345869,vowelstep7.wav,None,1000,26,2371877,346,27.285
J,6,2345869,sinestep3.wav,None,1000,26,2373876,356,29.285
J,6,2345869,sinestep7.wav,None,1000,26,2375876,331,31.285
J,6,2345869,silence.wav,None,1000,26,2377876,336,33.285
J,6,2345869,vowelstep5.wav,None,1000,26,2379876,336,35.285
J,6,2345869,sinestep1.wav,None,1000,26,2381877,346,37.285
J,6,2345869,sinestep1_catch.wav,2,126,26,2383877,345,39.285
J,6,2345869,sinestep7.wav,None,1000,26,2385877,1225,41.285
J,6,2345869,vowelstep7.wav,None,1000,26,2387877,354,43.285
J,6,2345869,sinestep3_catch.wav,2,210,26,2389877,335,45.285
J,6,2345869,vowelstep3.wav,None,1000,26,2391877,1124,47.285
J,6,2345869,vowelstep7.wav,None,1000,26,2393877,336,49.285
J,6,2345869,sinestep1.wav,None,1000,26,2395877,346,51.285
J,6,2345869,vowelstep3.wav,None,1000,26,2397876,345,53.285
J,6,2345869,vowelstep1.wav,None,1000,26,2399877,344,55.285
J,6,2345869,sinestep5.wav,None,1000,26,2401877,353,57.285
J,6,2345869,sinestep5_catch.wav,2,58,26,2403877,334,59.285
J,6,2345869,sinestep5.wav,None,1000,26,2405877,1275,61.285
J,6,2345869,vowelstep7.wav,None,1000,26,2407877,333,63.285
J,6,2345869,sinestep7.wav,None,1000,26,2409877,345,65.285
J,6,2345869,vowelstep1.wav,None,1000,26,2411877,345,67.285
J,6,2345869,sinestep7_catch.wav,2,153,26,2413877,344,69.285
J,6,2345869,silence.wav,None,1000,26,2415877,1200,71.285
J,6,2345869,vowelstep5.wav,None,1000,26,2417878,334,73.285
J,6,2345869,sinestep5.wav,None,1000,26,2419878,333,75.285
J,6,2345869,sinestep5.wav,None,1000,26,2421877,332,77.285
J,6,2345869,vowelstep3.wav,None,1000,26,2423877,342,79.285
J,6,2345869,vowelstep5.wav,None,1000,26,2425877,343,81.285
J,6,2345869,sinestep3.wav,None,1000,26,2427877,344,83.285
J,6,2345869,silence.wav,None,1000,26,2429877,353,85.285
J,6,2345869,vowelstep3.wav,None,1000,26,2431877,322,87.285
J,6,2345869,vowelstep7.wav,None,1000,26,2433877,332,89.285
J,6,2345869,silence.wav,None,1000,26,2435878,332,91.285
J,6,2345869,sinestep3.wav,None,1000,26,2437878,341,93.285
J,6,2345869,silence.wav,None,1000,26,2439878,342,95.285
J,6,2345869,sinestep1.wav,None,1000,26,2441878,342,97.285
J,6,2345869,sinestep5_catch.wav,2,134,26,2443878,353,99.285
J,6,2345869,sinestep7.wav,None,1000,26,2445877,1218,101.285
J,6,2345869,sinestep5.wav,None,1000,26,2447877,333,103.285
J,6,2345869,sinestep5.wav,None,1000,26,2449877,331,105.285
J,6,2345869,sinestep3.wav,None,1000,26,2451878,341,107.285
J,6,2345869,sinestep3_catch.wav,2,199,26,2453878,341,109.285
J,6,2345869,sinestep3.wav,None,1000,26,2455878,1141,111.285
J,6,2345869,silence.wav,None,1000,26,2457878,341,113.285
J,6,2345869,sinestep1.wav,None,1000,26,2459878,321,115.285
J,6,2345869,silence.wav,None,1000,26,2461878,330,117.285
J,6,2345869,vowelstep3.wav,None,1000,26,2463878,330,119.285
J,6,2345869,vowelstep5.wav,None,1000,26,2465878,340,121.285
J,6,2345869,vowelstep7.wav,None,1000,26,2467878,340,123.285
J,6,2345869,silence.wav,None,1000,26,2469878,337,125.285
J,6,2345869,sinestep1.wav,None,1000,26,2471878,340,127.285
J,6,2345869,sinestep3.wav,None,1000,26,2473878,324,129.285
J,6,2345869,sinestep7.wav,None,1000,26,2475878,332,131.285
J,6,2345869,silence.wav,None,1000,26,2477878,332,133.285
J,6,2345869,sinestep1.wav,None,1000,26,2479878,332,135.285
J,6,2345869,vowelstep7.wav,None,1000,26,2481878,342,137.285
J,6,2345869,sinestep5.wav,None,1000,26,2483878,342,139.285
J,6,2345869,vowelstep1.wav,None,1000,26,2485878,340,141.285
J,6,2345869,vowelstep7.wav,None,1000,26,2487879,351,143.285
J,6,2345869,vowelstep3.wav,None,1000,26,2489879,321,145.285
J,6,2345869,vowelstep3.wav,None,1000,26,2491879,330,147.285
J,6,2345869,sinestep7.wav,None,1000,26,2493878,331,149.285
J,6,2345869,vowelstep5.wav,None,1000,26,2495878,341,151.285
J,6,2345869,silence.wav,None,1000,26,2497878,340,153.285
J,6,2345869,sinestep1.wav,None,1000,26,2499878,340,155.285
J,6,2345869,sinestep3.wav,None,1000,26,2501878,341,157.285
J,6,2345869,silence.wav,None,1000,26,2503878,330,159.285
J,6,2345869,sinestep1.wav,None,1000,26,2505879,330,161.285
J,6,2345869,vowelstep7.wav,None,1000,26,2507879,330,163.285
J,6,2345869,vowelstep7.wav,None,1000,26,2509879,330,165.285
J,6,2345869,sinestep1_catch.wav,2,306,26,2511879,340,167.285
J,6,2345869,vowelstep1_catch.wav,None,1000,26,2513879,1033,169.285
J,6,2345869,vowelstep1.wav,None,1000,26,2515879,349,171.285
J,6,2345869,vowelstep7.wav,None,1000,26,2517878,350,173.285
J,6,2345869,sinestep1.wav,None,1000,26,2519878,329,175.285
J,6,2345869,vowelstep5.wav,None,1000,26,2521879,330,177.285
J,6,2345869,vowelstep5.wav,None,1000,26,2523879,325,179.285
J,6,2345869,sinestep5.wav,None,1000,26,2525879,338,181.285
J,6,2345869,sinestep7.wav,None,1000,26,2527879,339,183.285
J,6,2345869,sinestep7.wav,None,1000,26,2529879,338,185.285
J,6,2345869,sinestep1.wav,None,1000,26,2531879,314,187.285
J,6,2345869,vowelstep1.wav,None,1000,26,2533879,328,189.285
J,6,2345869,silence.wav,None,1000,26,2535879,328,191.285
J,6,2345869,sinestep5.wav,None,1000,26,2537879,329,193.285
J,6,2345869,vowelstep5.wav,None,1000,26,2539880,338,195.285
J,6,2345869,vowelstep1.wav,None,1000,26,2541879,282,197.285
J,6,2345869,vowelstep1.wav,None,1000,26,2543879,337,199.285
J,6,2345869,sinestep3.wav,None,1000,26,2545879,347,201.285
J,6,2345869,sinestep3.wav,None,1000,26,2547879,327,203.285
J,6,2345869,silence.wav,None,1000,26,2549879,327,205.285
J,6,2345869,sinestep5.wav,None,1000,26,2551879,327,207.285
J,6,2345869,vowelstep1.wav,None,1000,26,2553879,337,209.285
J,6,2345869,vowelstep5.wav,None,1000,26,2555879,338,211.285
J,6,2345869,vowelstep3.wav,None,1000,26,2557880,338,213.285
J,6,2345869,vowelstep3.wav,None,1000,26,2559880,346,215.285
J,6,2345869,silence.wav,None,1000,26,2561880,327,217.285
J,6,2345869,sinestep1.wav,None,1000,26,2563880,326,219.285
J,6,2345869,vowelstep3.wav,None,1000,26,2565879,326,221.285
J,6,2345869,sinestep7.wav,None,1000,26,2567879,336,223.285
J,6,2345869,vowelstep7.wav,None,1000,26,2569879,337,225.285
J,6,2345869,silence.wav,None,1000,26,2571879,337,227.285
J,6,2345869,vowelstep5.wav,None,1000,26,2573879,346,229.285
J,6,2345869,silence.wav,None,1000,26,2575880,325,231.285
J,6,2345869,sinestep3.wav,None,1000,26,2577880,325,233.285
J,6,2345869,vowelstep5.wav,None,1000,26,2579880,325,235.285
J,6,2345869,vowelstep3.wav,None,1000,26,2581880,335,237.285
J,6,2345869,vowelstep5.wav,None,1000,26,2583880,335,239.285
J,6,2345869,vowelstep7.wav,None,1000,26,2585880,336,241.285
J,6,2345869,vowelstep1.wav,None,1000,26,2587880,345,243.285
J,6,2345869,sinestep7.wav,None,1000,26,2589880,346,245.285
J,6,2345869,sinestep7.wav,None,1000,26,2591880,324,247.285
J,6,2345869,silence.wav,None,1000,26,2593880,324,249.285
J,6,2345869,vowelstep1.wav,None,1000,26,2595880,331,251.285
J,6,2345869,vowelstep3_catch.wav,None,1000,26,2597880,334,253.285
J,6,2345869,vowelstep1.wav,None,1000,26,2599880,334,255.285
J,6,2345869,vowelstep5_catch.wav,None,1000,26,2601880,345,257.285
J,6,2345869,silence.wav,None,1000,26,2603880,315,259.285
J,6,2345869,sinestep5.wav,None,1000,26,2605880,324,261.285
J,6,2345869,vowelstep1.wav,None,1000,26,2607880,325,263.285
J,6,2345869,sinestep5.wav,None,1000,26,2609881,334,265.285
J,6,2345869,vowelstep3.wav,None,1000,26,2611881,333,267.285
J,6,2345869,sinestep5.wav,None,1000,26,2613881,333,269.285
J,6,2345869,sinestep7.wav,None,1000,26,2615880,333,271.285
J,6,2345869,silence.wav,None,1000,26,2617880,344,273.285
J,6,2345869,vowelstep7_catch.wav,None,1000,26,2619880,344,275.285
J,6,2345869,sinestep3.wav,None,1000,26,2621880,322,277.285
J,6,2345869,vowelstep5.wav,None,1000,26,2623880,333,279.285
J,6,2345869,silence.wav,None,1000,26,2625880,333,281.285
J,6,2345869,silence.wav,None,1000,26,2627881,332,283.285
J,6,2345869,silence.wav,None,1000,26,2629881,342,285.285
J,6,2345869,vowelstep7.wav,None,1000,26,2631881,342,287.285
J,6,2345869,sinestep3.wav,None,1000,26,2633881,342,289.285
J,6,2345869,vowelstep5_catch.wav,None,1000,26,2635881,342,291.285
J,6,2345869,silence.wav,None,1000,26,2637881,332,293.285
J,6,2345869,sinestep7.wav,None,1000,26,2639880,332,295.285
J,6,2345869,vowelstep1.wav,None,1000,26,2641880,332,297.285
J,6,2345869,silence.wav,None,1000,26,2643880,331,299.285
J,6,2345869,sinestep1.wav,None,1000,26,2645881,341,301.285
J,6,2345869,sinestep5.wav,None,1000,26,2647881,340,303.285
J,6,2345869,vowelstep5.wav,None,1000,26,2649881,351,305.285
J,6,2345869,vowelstep3.wav,None,1000,26,2651881,321,307.285
J,6,2345869,sinestep7.wav,None,1000,26,2653881,331,309.285
J,6,2345869,vowelstep7.wav,None,1000,26,2655881,331,311.285
J,6,2345869,vowelstep3_catch.wav,None,1000,26,2657881,329,313.285
J,6,2345869,vowelstep1_catch.wav,None,1000,26,2659881,341,315.285
J,6,2345869,sinestep3.wav,None,1000,26,2661882,340,317.285
J,6,2345869,sinestep1.wav,None,1000,26,2663881,340,319.285
C,7,2727486,sinestep1.wav,None,1000,26,2727498,0,1.285
C,7,2727486,vowelstep1.wav,None,1000,26,2729498,324,3.285
C,7,2727486,sinestep1.wav,None,1000,26,2731499,324,5.285
C,7,2727486,sinestep1.wav,None,1000,26,2733499,323,7.285
C,7,2727486,vowelstep1.wav,None,1000,26,2735499,333,9.285
C,7,2727486,sinestep1.wav,None,1000,26,2737499,333,11.285
C,7,2727486,sinestep7.wav,None,1000,26,2739499,332,13.285
C,7,2727486,vowelstep7.wav,None,1000,26,2741499,312,15.285
C,7,2727486,vowelstep3.wav,None,1000,26,2743499,323,17.285
C,7,2727486,vowelstep5.wav,None,1000,26,2745499,322,19.285
C,7,2727486,silence.wav,None,1000,26,2747499,322,21.285
C,7,2727486,sinestep3.wav,None,1000,26,2749500,332,23.285
C,7,2727486,vowelstep5.wav,None,1000,26,2751499,331,25.285
C,7,2727486,sinestep1.wav,None,1000,26,2753499,331,27.285
C,7,2727486,vowelstep1.wav,None,1000,26,2755499,342,29.285
C,7,2727486,vowelstep7.wav,None,1000,26,2757499,322,31.285
C,7,2727486,vowelstep3.wav,None,1000,26,2759499,322,33.285
C,7,2727486,sinestep1.wav,None,1000,26,2761499,322,35.285
C,7,2727486,sinestep5.wav,None,1000,26,2763499,332,37.285
C,7,2727486,silence.wav,None,1000,26,2765499,331,39.285
C,7,2727486,vowelstep7.wav,None,1000,26,2767500,332,41.285
C,7,2727486,vowelstep5.wav,None,1000,26,2769500,340,43.285
C,7,2727486,sinestep5.wav,None,1000,26,2771500,320,45.285
C,7,2727486,silence.wav,None,1000,26,2773500,320,47.285
C,7,2727486,sinestep5.wav,None,1000,26,2775499,321,49.285
C,7,2727486,sinestep1.wav,None,1000,26,2777499,331,51.285
C,7,2727486,silence.wav,None,1000,26,2779499,330,53.285
C,7,2727486,vowelstep1.wav,None,1000,26,2781499,330,55.285
C,7,2727486,vowelstep1.wav,None,1000,26,2783499,340,57.285
C,7,2727486,sinestep1.wav,None,1000,26,2785500,339,59.285
C,7,2727486,silence.wav,None,1000,26,2787500,340,61.285
C,7,2727486,vowelstep5.wav,None,1000,26,2789500,349,63.285
C,7,2727486,vowelstep3.wav,None,1000,26,2791500,330,65.285
C,7,2727486,vowelstep3.wav,None,1000,26,2793500,330,67.285
C,7,2727486,vowelstep7.wav,None,1000,26,2795500,329,69.285
C,7,2727486,silence.wav,None,1000,26,2797500,329,71.285
C,7,2727486,vowelstep3.wav,None,1000,26,2799500,340,73.285
C,7,2727486,silence.wav,None,1000,26,2801500,340,75.285
C,7,2727486,sinestep5.wav,None,1000,26,2803500,339,77.285
C,7,2727486,vowelstep7.wav,None,1000,26,2805500,318,79.285
C,7,2727486,vowelstep1_catch.wav,None,1000,26,2807500,329,81.285
C,7,2727486,vowelstep3.wav,None,1000,26,2809500,329,83.285
C,7,2727486,sinestep7.wav,None,1000,26,2811500,328,85.285
C,7,2727486,vowelstep3.wav,None,1000,26,2813500,338,87.285
C,7,2727486,sinestep1.wav,None,1000,26,2815500,338,89.285
C,7,2727486,sinestep7.wav,None,1000,26,2817500,338,91.285
C,7,2727486,sinestep7.wav,None,1000,26,2819501,348,93.285
C,7,2727486,sinestep3.wav,None,1000,26,2821501,327,95.285
C,7,2727486,vowelstep3_catch.wav,None,1000,26,2823501,327,97.285
C,7,2727486,sinestep5.wav,None,1000,26,2825500,328,99.285
C,7,2727486,sinestep5.wav,None,1000,26,2827500,338,101.285
C,7,2727486,vowelstep3.wav,None,1000,26,2829500,337,103.285
C,7,2727486,vowelstep5.wav,None,1000,26,2831500,348,105.285
C,7,2727486,sinestep1.wav,None,1000,26,2833500,317,107.285
C,7,2727486,sinestep3.wav,None,1000,26,2835500,327,109.285
C,7,2727486,vowelstep5.wav,None,1000,26,2837501,327,111.285
C,7,2727486,vowelstep7.wav,None,1000,26,2839501,338,113.285
C,7,2727486,vowelstep1.wav,None,1000,26,2841501,337,115.285
C,7,2727486,sinestep7.wav,None,1000,26,2843501,336,117.285
C,7,2727486,sinestep3.wav,None,1000,26,2845501,336,119.285
C,7,2727486,vowelstep1.wav,None,1000,26,2847501,346,121.285
C,7,2727486,vowelstep1.wav,None,1000,26,2849500,326,123.285
C,7,2727486,sinestep3.wav,None,1000,26,2851500,327,125.285
C,7,2727486,silence.wav,None,1000,26,2853500,326,127.285
C,7,2727486,silence.wav,None,1000,26,2855501,335,129.285
C,7,2727486,vowelstep5_catch.wav,None,1000,26,2857501,336,131.285
C,7,2727486,vowelstep5.wav,None,1000,26,2859501,335,133.285
C,7,2727486,silence.wav,None,1000,26,2861501,345,135.285
C,7,2727486,sinestep1.wav,None,1000,26,2863501,325,137.285
C,7,2727486,vowelstep7.wav,None,1000,26,2865501,326,139.285
C,7,2727486,sinestep7.wav,None,1000,26,2867501,327,141.285
C,7,2727486,silence.wav,None,1000,26,2869501,335,143.285
C,7,2727486,silence.wav,None,1000,26,2871502,336,145.285
C,7,2727486,sinestep7.wav,None,1000,26,2873501,334,147.285
C,7,2727486,vowelstep1.wav,None,1000,26,2875501,314,149.285
C,7,2727486,vowelstep5.wav,None,1000,26,2877501,325,151.285
C,7,2727486,vowelstep5.wav,None,1000,26,2879501,324,153.285
C,7,2727486,vowelstep7.wav,None,1000,26,2881501,324,155.285
C,7,2727486,sinestep7.wav,None,1000,26,2883501,334,157.285
C,7,2727486,vowelstep1.wav,None,1000,26,2885501,333,159.285
C,7,2727486,vowelstep3.wav,None,1000,26,2887501,334,161.285
C,7,2727486,sinestep5.wav,None,1000,26,2889502,335,163.285
C,7,2727486,sinestep7.wav,None,1000,26,2891502,323,165.285
C,7,2727486,sinestep1.wav,None,1000,26,2893502,323,167.285
C,7,2727486,sinestep7.wav,None,1000,26,2895502,322,169.285
C,7,2727486,sinestep3.wav,None,1000,26,2897501,323,171.285
C,7,2727486,silence.wav,None,1000,26,2899501,333,173.285
C,7,2727486,vowelstep7.wav,None,1000,26,2901501,332,175.285
C,7,2727486,sinestep7.wav,None,1000,26,2903501,314,177.285
C,7,2727486,sinestep5.wav,None,1000,26,2905501,322,179.285
C,7,2727486,vowelstep7.wav,None,1000,26,2907502,323,181.285
C,7,2727486,vowelstep5.wav,None,1000,26,2909502,322,183.285
C,7,2727486,vowelstep3.wav,None,1000,26,2911502,331,185.285
C,7,2727486,vowelstep7_catch.wav,None,1000,26,2913502,332,187.285
C,7,2727486,vowelstep3.wav,None,1000,26,2915502,331,189.285
C,7,2727486,vowelstep5.wav,None,1000,26,2917502,332,191.285
C,7,2727486,vowelstep7.wav,None,1000,26,2919502,322,193.285
C,7,2727486,vowelstep7_catch.wav,None,1000,26,2921501,322,195.285
C,7,2727486,vowelstep5_catch.wav,None,1000,26,2923501,322,197.285
C,7,2727486,sinestep5.wav,None,1000,26,2925502,321,199.285
C,7,2727486,sinestep3.wav,None,1000,26,2927502,330,201.285
C,7,2727486,vowelstep3_catch.wav,None,1000,26,2929502,331,203.285
C,7,2727486,vowelstep1_catch.wav,None,1000,26,2931502,340,205.285
C,7,2727486,vowelstep5.wav,None,1000,26,2933502,341,207.285
C,7,2727486,vowelstep1.wav,None,1000,26,2935502,323,209.285
C,7,2727486,sinestep1_catch.wav,2,270,26,2937502,321,211.285
C,7,2727486,sinestep3_catch.wav,2,100,26,2939502,1050,213.285
C,7,2727486,sinestep1.wav,None,1000,26,2941503,1230,215.285
C,7,2727486,vowelstep3.wav,None,1000,26,2943503,330,217.285
C,7,2727486,sinestep3.wav,None,1000,26,2945502,340,219.285
C,7,2727486,vowelstep5.wav,None,1000,26,2947502,309,221.285
C,7,2727486,sinestep7.wav,None,1000,26,2949502,319,223.285
C,7,2727486,sinestep1.wav,None,1000,26,2951502,320,225.285
C,7,2727486,sinestep5_catch.wav,2,287,26,2953502,320,227.285
C,7,2727486,vowelstep7.wav,None,1000,26,2955502,1042,229.285
C,7,2727486,vowelstep3.wav,None,1000,26,2957502,329,231.285
C,7,2727486,silence.wav,None,1000,26,2959503,329,233.285
C,7,2727486,vowelstep1.wav,None,1000,26,2961503,339,235.285
C,7,2727486,sinestep5.wav,None,1000,26,2963503,318,237.285
C,7,2727486,sinestep1.wav,None,1000,26,2965503,319,239.285
C,7,2727486,vowelstep7.wav,None,1000,26,2967503,319,241.285
C,7,2727486,sinestep3.wav,None,1000,26,2969502,320,243.285
C,7,2727486,sinestep3.wav,None,1000,26,2971502,329,245.285
C,7,2727486,sinestep5.wav,None,1000,26,2973502,338,247.285
C,7,2727486,vowelstep3.wav,None,1000,26,2975502,308,249.285
C,7,2727486,sinestep3.wav,None,1000,26,2977503,319,251.285
C,7,2727486,silence.wav,None,1000,26,2979503,318,253.285
C,7,2727486,sinestep3.wav,None,1000,26,2981503,327,255.285
C,7,2727486,vowelstep1.wav,None,1000,26,2983503,328,257.285
C,7,2727486,silence.wav,None,1000,26,2985503,328,259.285
C,7,2727486,vowelstep1.wav,None,1000,26,2987503,327,261.285
C,7,2727486,silence.wav,None,1000,26,2989503,338,263.285
C,7,2727486,sinestep7.wav,None,1000,26,2991503,317,265.285
C,7,2727486,sinestep3.wav,None,1000,26,2993502,317,267.285
C,7,2727486,vowelstep1.wav,None,1000,26,2995503,317,269.285
C,7,2727486,sinestep7.wav,None,1000,26,2997503,327,271.285
C,7,2727486,sinestep7_catch.wav,2,95,26,2999503,327,273.285
C,7,2727486,vowelstep5.wav,None,1000,26,3001503,1232,275.285
C,7,2727486,silence.wav,None,1000,26,3003503,337,277.285
C,7,2727486,silence.wav,None,1000,26,3005503,317,279.285
C,7,2727486,sinestep3.wav,None,1000,26,3007503,317,281.285
C,7,2727486,vowelstep7.wav,None,1000,26,3009503,316,283.285
C,7,2727486,sinestep5.wav,None,1000,26,3011504,325,285.285
C,7,2727486,sinestep5.wav,None,1000,26,3013504,326,287.285
C,7,2727486,vowelstep3.wav,None,1000,26,3015504,327,289.285
C,7,2727486,sinestep3.wav,None,1000,26,3017504,306,291.285
C,7,2727486,silence.wav,None,1000,26,3019503,306,293.285
C,7,2727486,silence.wav,None,1000,26,3021503,336,295.285
C,7,2727486,vowelstep7.wav,None,1000,26,3023503,345,297.285
C,7,2727486,silence.wav,None,1000,26,3025503,325,299.285
C,7,2727486,vowelstep5.wav,None,1000,26,3027503,325,301.285
C,7,2727486,sinestep5.wav,None,1000,26,3029504,325,303.285
C,7,2727486,silence.wav,None,1000,26,3031504,325,305.285
C,7,2727486,silence.wav,None,1000,26,3033504,335,307.285
C,7,2727486,silence.wav,None,1000,26,3035504,335,309.285
C,7,2727486,sinestep7_catch.wav,2,303,26,3037504,344,311.285
C,7,2727486,sinestep7.wav,None,1000,26,3039504,1018,313.285
C,7,2727486,sinestep5_catch.wav,2,239,26,3041503,324,315.285
C,7,2727486,sinestep5.wav,None,1000,26,3043503,1084,317.285
C,7,2727486,sinestep3_catch.wav,2,184,26,3045503,334,319.285
I,8,3101516,vowelstep7.wav,None,1000,26,3101522,0,1.285
I,8,3101516,sinestep1_catch.wav,2,124,26,3103522,331,3.285
I,8,3101516,sinestep3.wav,None,1000,26,3105522,1216,5.285
I,8,3101516,silence.wav,None,1000,26,3107521,340,7.285
I,8,3101516,vowelstep7.wav,None,1000,26,3109521,340,9.285
I,8,3101516,sinestep3_catch.wav,2,221,26,3111521,350,11.285
I,8,3101516,vowelstep3.wav,None,1000,26,3113521,1110,13.285
I,8,3101516,vowelstep3.wav,None,1000,26,3115521,331,15.285
I,8,3101516,silence.wav,None,1000,26,3117522,331,17.285
I,8,3101516,vowelstep1.wav,None,1000,26,3119522,340,19.285
I,8,3101516,vowelstep5.wav,None,1000,26,3121522,339,21.285
I,8,3101516,vowelstep7.wav,None,1000,26,3123522,339,23.285
I,8,3101516,sinestep1.wav,None,1000,26,3125522,319,25.285
I,8,3101516,vowelstep1.wav,None,1000,26,3127522,329,27.285
I,8,3101516,sinestep5_catch.wav,2,250,26,3129522,329,29.285
I,8,3101516,sinestep5.wav,None,1000,26,3131521,1078,31.285
I,8,3101516,vowelstep1.wav,None,1000,26,3133522,340,33.285
I,8,3101516,sinestep7.wav,None,1000,26,3135522,339,35.285
I,8,3101516,vowelstep3.wav,None,1000,26,3137522,338,37.285
I,8,3101516,vowelstep1.wav,None,1000,26,3139522,338,39.285
I,8,3101516,vowelstep1.wav,None,1000,26,3141522,328,41.285
I,8,3101516,sinestep3.wav,None,1000,26,3143522,328,43.285
I,8,3101516,sinestep5.wav,None,1000,26,3145522,328,45.285
I,8,3101516,sinestep5.wav,None,1000,26,3147522,338,47.285
I,8,3101516,vowelstep3.wav,None,1000,26,3149522,338,49.285
I,8,3101516,silence.wav,None,1000,26,3151523,338,51.285
I,8,3101516,sinestep7_catch.wav,2,112,26,3153523,347,53.285
I,8,3101516,silence.wav,None,1000,26,3155522,1215,55.285
I,8,3101516,sinestep1.wav,None,1000,26,3157522,327,57.285
I,8,3101516,vowelstep1.wav,None,1000,26,3159522,327,59.285
I,8,3101516,sinestep1.wav,None,1000,26,3161522,337,61.285
I,8,3101516,sinestep1.wav,None,1000,26,3163522,337,63.285
I,8,3101516,vowelstep7.wav,None,1000,26,3165522,338,65.285
I,8,3101516,sinestep5.wav,None,1000,26,3167522,338,67.285
I,8,3101516,sinestep5_catch.wav,2,328,26,3169523,317,69.285
I,8,3101516,vowelstep7.wav,None,1000,26,3171523,998,71.285
I,8,3101516,vowelstep5.wav,None,1000,26,3173523,326,73.285
I,8,3101516,sinestep3.wav,None,1000,26,3175523,326,75.285
I,8,3101516,vowelstep1.wav,None,1000,26,3177523,336,77.285
I,8,3101516,sinestep3.wav,None,1000,26,3179522,336,79.285
I,8,3101516,sinestep5.wav,None,1000,26,3181522,337,81.285
I,8,3101516,sinestep5.wav,None,1000,26,3183522,346,83.285
I,8,3101516,vowelstep5.wav,None,1000,26,3185522,345,85.285
I,8,3101516,vowelstep7.wav,None,1000,26,3187523,346,87.285
I,8,3101516,sinestep3.wav,None,1000,26,3189523,325,89.285
I,8,3101516,vowelstep3.wav,None,1000,26,3191523,335,91.285
I,8,3101516,sinestep3.wav,None,1000,26,3193523,336,93.285
I,8,3101516,vowelstep5.wav,None,1000,26,3195523,335,95.285
I,8,3101516,sinestep7.wav,None,1000,26,3197523,315,97.285
I,8,3101516,sinestep3_catch.wav,2,86,26,3199523,346,99.285
I,8,3101516,sinestep1_catch.wav,2,147,26,3201523,1258,101.285
I,8,3101516,vowelstep3.wav,None,1000,26,3203523,1205,103.285
I,8,3101516,vowelstep3.wav,None,1000,26,3205523,331,105.285
I,8,3101516,vowelstep5.wav,None,1000,26,3207523,331,107.285
I,8,3101516,sinestep5.wav,None,1000,26,3209523,333,109.285
I,8,3101516,vowelstep5.wav,None,1000,26,3211523,345,111.285
I,8,3101516,vowelstep5.wav,None,1000,26,3213523,344,113.285
I,8,3101516,vowelstep1.wav,None,1000,26,3215523,354,115.285
I,8,3101516,vowelstep1_catch.wav,None,1000,26,3217523,354,117.285
I,8,3101516,sinestep7.wav,None,1000,26,3219523,334,119.285
I,8,3101516,vowelstep3.wav,None,1000,26,3221524,334,121.285
I,8,3101516,sinestep7.wav,None,1000,26,3223524,343,123.285
I,8,3101516,sinestep7.wav,None,1000,26,3225524,344,125.285
I,8,3101516,vowelstep7.wav,None,1000,26,3227523,342,127.285
I,8,3101516,vowelstep3.wav,None,1000,26,3229523,343,129.285
I,8,3101516,sinestep5.wav,None,1000,26,3231523,353,131.285
I,8,3101516,sinestep5.wav,None,1000,26,3233523,333,133.285
I,8,3101516,vowelstep3.wav,None,1000,26,3235523,333,135.285
I,8,3101516,sinestep5.wav,None,1000,26,3237523,333,137.285
I,8,3101516,sinestep1.wav,None,1000,26,3239524,341,139.285
I,8,3101516,vowelstep7.wav,None,1000,26,3241524,342,141.285
I,8,3101516,silence.wav,None,1000,26,3243524,342,143.285
I,8,3101516,vowelstep7.wav,None,1000,26,3245524,352,145.285
I,8,3101516,silence.wav,None,1000,26,3247524,353,147.285
I,8,3101516,sinestep1.wav,None,1000,26,3249524,331,149.285
I,8,3101516,vowelstep1.wav,None,1000,26,3251523,332,151.285
I,8,3101516,vowelstep3.wav,None,1000,26,3253523,329,153.285
I,8,3101516,silence.wav,None,1000,26,3255523,342,155.285
I,8,3101516,silence.wav,None,1000,26,3257524,337,157.285
I,8,3101516,vowelstep1.wav,None,1000,26,3259524,350,159.285
I,8,3101516,sinestep1.wav,None,1000,26,3261524,321,161.285
I,8,3101516,vowelstep3_catch.wav,None,1000,26,3263524,332,163.285
I,8,3101516,sinestep1.wav,None,1000,26,3265524,327,165.285
I,8,3101516,vowelstep5.wav,None,1000,26,3267524,341,167.285
I,8,3101516,vowelstep5_catch.wav,None,1000,26,3269524,339,169.285
I,8,3101516,sinestep1.wav,None,1000,26,3271524,340,171.285
I,8,3101516,silence.wav,None,1000,26,3273525,336,173.285
I,8,3101516,vowelstep5.wav,None,1000,26,3275524,326,175.285
I,8,3101516,sinestep3.wav,None,1000,26,3277524,327,177.285
I,8,3101516,sinestep3.wav,None,1000,26,3279524,330,179.285
I,8,3101516,silence.wav,None,1000,26,3281524,339,181.285
I,8,3101516,silence.wav,None,1000,26,3283524,340,183.285
I,8,3101516,vowelstep3.wav,None,1000,26,3285524,339,185.285
I,8,3101516,vowelstep7.wav,None,1000,26,3287524,349,187.285
I,8,3101516,vowelstep7.wav,None,1000,26,3289524,330,189.285
I,8,3101516,silence.wav,None,1000,26,3291525,329,191.285
I,8,3101516,sinestep3.wav,None,1000,26,3293525,329,193.285
I,8,3101516,sinestep3.wav,None,1000,26,3295525,339,195.285
I,8,3101516,vowelstep5.wav,None,1000,26,3297525,338,197.285
I,8,3101516,vowelstep1.wav,None,1000,26,3299524,339,199.285
I,8,3101516,vowelstep1.wav,None,1000,26,3301524,338,201.285
I,8,3101516,sinestep5.wav,None,1000,26,3303524,329,203.285
I,8,3101516,silence.wav,None,1000,26,3305524,328,205.285
I,8,3101516,sinestep5.wav,None,1000,26,3307524,328,207.285
I,8,3101516,sinestep7.wav,None,1000,26,3309525,329,209.285
I,8,3101516,sinestep1.wav,None,1000,26,3311525,338,211.285
I,8,3101516,sinestep5.wav,None,1000,26,3313525,337,213.285
I,8,3101516,vowelstep5.wav,None,1000,26,3315525,347,215.285
I,8,3101516,sinestep7.wav,None,1000,26,3317525,347,217.285
I,8,3101516,sinestep5.wav,None,1000,26,3319525,329,219.285
I,8,3101516,sinestep3.wav,None,1000,26,3321525,327,221.285
I,8,3101516,silence.wav,None,1000,26,3323525,328,223.285
I,8,3101516,vowelstep7_catch.wav,None,1000,26,3325524,338,225.285
I,8,3101516,sinestep7.wav,None,1000,26,3327525,338,227.285
I,8,3101516,sinestep7.wav,None,1000,26,3329525,338,229.285
I,8,3101516,sinestep3.wav,None,1000,26,3331525,345,231.285
I,8,3101516,vowelstep3.wav,None,1000,26,3333525,326,233.285
I,8,3101516,silence.wav,None,1000,26,3335525,327,235.285
I,8,3101516,sinestep3.wav,None,1000,26,3337525,326,237.285
I,8,3101516,sinestep5.wav,None,1000,26,3339525,336,239.285
I,8,3101516,silence.wav,None,1000,26,3341525,337,241.285
I,8,3101516,vowelstep3.wav,None,1000,26,3343526,337,243.285
I,8,3101516,sinestep1.wav,None,1000,26,3345526,345,245.285
I,8,3101516,sinestep1.wav,None,1000,26,3347526,326,247.285
I,8,3101516,sinestep7.wav,None,1000,26,3349525,326,249.285
I,8,3101516,vowelstep7.wav,None,1000,26,3351525,326,251.285
I,8,3101516,vowelstep5.wav,None,1000,26,3353525,326,253.285
I,8,3101516,silence.wav,None,1000,26,3355525,336,255.285
I,8,3101516,sinestep3.wav,None,1000,26,3357525,336,257.285
I,8,3101516,vowelstep1.wav,None,1000,26,3359525,346,259.285
I,8,3101516,vowelstep1.wav,None,1000,26,3361526,316,261.285
I,8,3101516,silence.wav,None,1000,26,3363526,325,263.285
I,8,3101516,vowelstep3.wav,None,1000,26,3365526,324,265.285
I,8,3101516,silence.wav,None,1000,26,3367526,335,267.285
I,8,3101516,silence.wav,None,1000,26,3369526,334,269.285
I,8,3101516,sinestep7.wav,None,1000,26,3371526,334,271.285
I,8,3101516,sinestep7.wav,None,1000,26,3373525,344,273.285
I,8,3101516,vowelstep5.wav,None,1000,26,3375525,325,275.285
I,8,3101516,silence.wav,None,1000,26,3377525,324,277.285
I,8,3101516,silence.wav,None,1000,26,3379526,323,279.285
I,8,3101516,sinestep1.wav,None,1000,26,3381526,333,281.285
I,8,3101516,silence.wav,None,1000,26,3383526,333,283.285
I,8,3101516,vowelstep7.wav,None,1000,26,3385526,333,285.285
I,8,3101516,vowelstep5_catch.wav,None,1000,26,3387526,343,287.285
I,8,3101516,sinestep7.wav,None,1000,26,3389526,343,289.285
I,8,3101516,sinestep1.wav,None,1000,26,3391526,324,291.285
I,8,3101516,vowelstep3_catch.wav,None,1000,26,3393526,323,293.285
I,8,3101516,sinestep1.wav,None,1000,26,3395526,333,295.285
I,8,3101516,vowelstep7.wav,None,1000,26,3397526,332,297.285
I,8,3101516,sinestep3.wav,None,1000,26,3399526,332,299.285
I,8,3101516,vowelstep5.wav,None,1000,26,3401526,342,301.285
I,8,3101516,vowelstep1_catch.wav,None,1000,26,3403526,312,303.285
I,8,3101516,vowelstep7.wav,None,1000,26,3405526,322,305.285
I,8,3101516,vowelstep5.wav,None,1000,26,3407526,322,307.285
I,8,3101516,sinestep1_catch.wav,2,73,26,3409526,332,309.285
I,8,3101516,silence.wav,None,1000,26,3411526,1258,311.285
I,8,3101516,sinestep7.wav,None,1000,26,3413527,333,313.285
I,8,3101516,silence.wav,None,1000,26,3415527,331,315.285
I,8,3101516,vowelstep1.wav,None,1000,26,3417527,321,317.285
I,8,3101516,sinestep7.wav,None,1000,26,3419527,321,319.285
A,9,3476621,sinestep5_catch.wav,2,294,26,3476627,0,1.285
A,9,3476621,vowelstep1.wav,None,1000,26,3478627,1039,3.285
A,9,3476621,vowelstep3.wav,None,1000,26,3480627,333,5.285
A,9,3476621,sinestep1.wav,None,1000,26,3482627,343,7.285
A,9,3476621,sinestep5_catch.wav,2,199,26,3484628,343,9.285
A,9,3476621,sinestep7.wav,None,1000,26,3486628,1143,11.285
A,9,3476621,sinestep3.wav,None,1000,26,3488628,342,13.285
A,9,3476621,silence.wav,None,1000,26,3490628,331,15.285
A,9,3476621,vowelstep7.wav,None,1000,26,3492627,332,17.285
A,9,3476621,sinestep7.wav,None,1000,26,3494627,332,19.285
A,9,3476621,vowelstep5_catch.wav,None,1000,26,3496627,332,21.285
A,9,3476621,sinestep7.wav,None,1000,26,3498627,342,23.285
A,9,3476621,sinestep3.wav,None,1000,26,3500627,342,25.285
A,9,3476621,silence.wav,None,1000,26,3502628,351,27.285
A,9,3476621,sinestep3.wav,None,1000,26,3504628,351,29.285
A,9,3476621,sinestep5_catch.wav,2,94,26,3506628,331,31.285
A,9,3476621,sinestep1.wav,None,1000,26,3508628,1236,33.285
A,9,3476621,sinestep1.wav,None,1000,26,3510628,342,35.285
A,9,3476621,sinestep5.wav,None,1000,26,3512628,341,37.285
A,9,3476621,vowelstep3.wav,None,1000,26,3514628,341,39.285
A,9,3476621,vowelstep5.wav,None,1000,26,3516628,341,41.285
A,9,3476621,vowelstep3.wav,None,1000,26,3518628,320,43.285
A,9,3476621,vowelstep1.wav,None,1000,26,3520628,329,45.285
A,9,3476621,vowelstep3.wav,None,1000,26,3522628,329,47.285
A,9,3476621,sinestep3.wav,None,1000,26,3524628,330,49.285
A,9,3476621,sinestep7.wav,None,1000,26,3526628,341,51.285
A,9,3476621,sinestep5.wav,None,1000,26,3528628,340,53.285
A,9,3476621,vowelstep7_catch.wav,None,1000,26,3530628,341,55.285
A,9,3476621,silence.wav,None,1000,26,3532628,350,57.285
A,9,3476621,vowelstep3.wav,None,1000,26,3534628,329,59.285
A,9,3476621,vowelstep1.wav,None,1000,26,3536629,331,61.285
A,9,3476621,silence.wav,None,1000,26,3538629,330,63.285
A,9,3476621,sinestep3.wav,None,1000,26,3540629,339,65.285
A,9,3476621,sinestep7.wav,None,1000,26,3542628,339,67.285
A,9,3476621,sinestep5.wav,None,1000,26,3544628,339,69.285
A,9,3476621,sinestep5.wav,None,1000,26,3546628,319,71.285
A,9,3476621,sinestep7.wav,None,1000,26,3548628,328,73.285
A,9,3476621,sinestep1.wav,None,1000,26,3550628,328,75.285
A,9,3476621,sinestep5.wav,None,1000,26,3552628,328,77.285
A,9,3476621,vowelstep1.wav,None,1000,26,3554629,338,79.285
A,9,3476621,sinestep1.wav,None,1000,26,3556629,338,81.285
A,9,3476621,vowelstep5.wav,None,1000,26,3558629,338,83.285
A,9,3476621,sinestep1.wav,None,1000,26,3560629,348,85.285
A,9,3476621,silence.wav,None,1000,26,3562629,327,87.285
A,9,3476621,vowelstep1.wav,None,1000,26,3564629,327,89.285
A,9,3476621,sinestep3.wav,None,1000,26,3566628,328,91.285
A,9,3476621,vowelstep5.wav,None,1000,26,3568628,337,93.285
A,9,3476621,vowelstep5.wav,None,1000,26,3570629,337,95.285
A,9,3476621,vowelstep5.wav,None,1000,26,3572629,337,97.285
A,9,3476621,vowelstep7.wav,None,1000,26,3574629,347,99.285
A,9,3476621,vowelstep3.wav,None,1000,26,3576629,318,101.285
A,9,3476621,sinestep1.wav,None,1000,26,3578629,327,103.285
A,9,3476621,sinestep1.wav,None,1000,26,3580629,326,105.285
A,9,3476621,vowelstep7.wav,None,1000,26,3582629,336,107.285
A,9,3476621,vowelstep1.wav,None,1000,26,3584629,336,109.285
A,9,3476621,vowelstep7.wav,None,1000,26,3586629,337,111.285
A,9,3476621,silence.wav,None,1000,26,3588630,345,113.285
A,9,3476621,sinestep1.wav,None,1000,26,3590629,326,115.285
A,9,3476621,vowelstep1.wav,None,1000,26,3592629,325,117.285
A,9,3476621,silence.wav,None,1000,26,3594629,326,119.285
A,9,3476621,vowelstep1.wav,None,1000,26,3596629,336,121.285
A,9,3476621,vowelstep3.wav,None,1000,26,3598629,335,123.285
A,9,3476621,vowelstep1.wav,None,1000,26,3600629,335,125.285
A,9,3476621,sinestep7.wav,None,1000,26,3602629,335,127.285
A,9,3476621,silence.wav,None,1000,26,3604629,325,129.285
A,9,3476621,vowelstep1.wav,None,1000,26,3606630,326,131.285
A,9,3476621,silence.wav,None,1000,26,3608630,324,133.285
A,9,3476621,sinestep7.wav,None,1000,26,3610630,325,135.285
A,9,3476621,vowelstep5.wav,None,1000,26,3612630,334,137.285
A,9,3476621,sinestep7.wav,None,1000,26,3614629,334,139.285
A,9,3476621,sinestep3.wav,None,1000,26,3616629,334,141.285
A,9,3476621,vowelstep5.wav,None,1000,26,3618629,314,143.285
A,9,3476621,silence.wav,None,1000,26,3620629,324,145.285
A,9,3476621,sinestep3.wav,None,1000,26,3622629,325,147.285
A,9,3476621,sinestep5.wav,None,1000,26,3624630,323,149.285
A,9,3476621,sinestep3.wav,None,1000,26,3626630,333,151.285
A,9,3476621,vowelstep3.wav,None,1000,26,3628630,333,153.285
A,9,3476621,sinestep3.wav,None,1000,26,3630630,333,155.285
A,9,3476621,vowelstep7_catch.wav,None,1000,26,3632630,343,157.285
A,9,3476621,vowelstep7.wav,None,1000,26,3634630,323,159.285
A,9,3476621,vowelstep5.wav,None,1000,26,3636630,324,161.285
A,9,3476621,sinestep5.wav,None,1000,26,3638630,324,163.285
A,9,3476621,silence.wav,None,1000,26,3640630,333,165.285
A,9,3476621,sinestep5.wav,None,1000,26,3642630,332,167.285
A,9,3476621,vowelstep5_catch.wav,None,1000,26,3644630,342,169.285
A,9,3476621,silence.wav,None,1000,26,3646630,312,171.285
A,9,3476621,sinestep7.wav,None,1000,26,3648630,321,173.285
A,9,3476621,sinestep5.wav,None,1000,26,3650630,322,175.285
A,9,3476621,sinestep7.wav,None,1000,26,3652630,322,177.285
A,9,3476621,vowelstep3.wav,None,1000,26,3654630,332,179.285
A,9,3476621,sinestep5.wav,None,1000,26,3656630,332,181.285
A,9,3476621,vowelstep1.wav,None,1000,26,3658631,332,183.285
A,9,3476621,vowelstep5.wav,None,1000,26,3660631,341,185.285
A,9,3476621,sinestep5.wav,None,1000,26,3662630,321,187.285
A,9,3476621,vowelstep1.wav,None,1000,26,3664630,341,189.285
A,9,3476621,silence.wav,None,1000,26,3666630,351,191.285
A,9,3476621,sinestep1.wav,None,1000,26,3668630,331,193.285
A,9,3476621,vowelstep5.wav,None,1000,26,3670630,332,195.285
A,9,3476621,sinestep3.wav,None,1000,26,3672630,331,197.285
A,9,3476621,silence.wav,None,1000,26,3674630,341,199.285
A,9,3476621,vowelstep3.wav,None,1000,26,3676631,321,201.285
A,9,3476621,vowelstep3_catch.wav,None,1000,26,3678631,320,203.285
A,9,3476621,vowelstep5.wav,None,1000,26,3680631,320,205.285
A,9,3476621,vowelstep1_catch.wav,None,1000,26,3682631,330,207.285
A,9,3476621,silence.wav,None,1000,26,3684631,330,209.285
A,9,3476621,sinestep3.wav,None,1000,26,3686631,330,211.285
A,9,3476621,vowelstep5.wav,None,1000,26,3688630,340,213.285
A,9,3476621,silence.wav,None,1000,26,3690630,340,215.285
A,9,3476621,sinestep5.wav,None,1000,26,3692630,340,217.285
A,9,3476621,vowelstep7.wav,None,1000,26,3694631,339,219.285
A,9,3476621,silence.wav,None,1000,26,3696631,328,221.285
A,9,3476621,vowelstep3.wav,None,1000,26,3698631,328,223.285
A,9,3476621,sinestep7.wav,None,1000,26,3700631,329,225.285
A,9,3476621,silence.wav,None,1000,26,3702631,341,227.285
A,9,3476621,vowelstep3.wav,None,1000,26,3704631,339,229.285
A,9,3476621,vowelstep5.wav,None,1000,26,3706631,339,231.285
A,9,3476621,vowelstep7.wav,None,1000,26,3708631,349,233.285
A,9,3476621,vowelstep3.wav,None,1000,26,3710631,320,235.285
A,9,3476621,vowelstep5.wav,None,1000,26,3712631,328,237.285
A,9,3476621,sinestep1_catch.wav,2,258,26,3714631,326,239.285
A,9,3476621,sinestep3.wav,None,1000,26,3716631,1079,241.285
A,9,3476621,sinestep1.wav,None,1000,26,3718631,337,243.285
A,9,3476621,sinestep3_catch.wav,2,162,26,3720631,338,245.285
A,9,3476621,sinestep7.wav,None,1000,26,3722631,1175,247.285
A,9,3476621,vowelstep1.wav,None,1000,26,3724631,327,249.285
A,9,3476621,sinestep3.wav,None,1000,26,3726631,327,251.285
A,9,3476621,vowelstep7.wav,None,1000,26,3728632,327,253.285
A,9,3476621,silence.wav,None,1000,26,3730632,326,255.285
A,9,3476621,sinestep1.wav,None,1000,26,3732632,336,257.285
A,9,3476621,silence.wav,None,1000,26,3734631,337,259.285
A,9,3476621,vowelstep5.wav,None,1000,26,3736631,347,261.285
A,9,3476621,sinestep5_catch.wav,2,246,26,3738631,327,263.285
A,9,3476621,vowelstep7.wav,None,1000,26,3740631,1080,265.285
A,9,3476621,sinestep3.wav,None,1000,26,3742631,326,267.285
A,9,3476621,vowelstep1.wav,None,1000,26,3744631,327,269.285
A,9,3476621,vowelstep3.wav,None,1000,26,3746632,338,271.285
A,9,3476621,sinestep7_catch.wav,2,224,26,3748632,337,273.285
A,9,3476621,silence.wav,None,1000,26,3750632,1112,275.285
A,9,3476621,vowelstep7.wav,None,1000,26,3752632,347,277.285
A,9,3476621,sinestep7.wav,None,1000,26,3754632,322,279.285
A,9,3476621,sinestep1.wav,None,1000,26,3756632,326,281.285
A,9,3476621,vowelstep7.wav,None,1000,26,3758632,325,283.285
A,9,3476621,sinestep5.wav,None,1000,26,3760631,335,285.285
A,9,3476621,sinestep5.wav,None,1000,26,3762631,335,287.285
A,9,3476621,sinestep7_catch.wav,2,271,26,3764632,334,289.285
A,9,3476621,sinestep5.wav,None,1000,26,3766632,1074,291.285
A,9,3476621,silence.wav,None,1000,26,3768632,325,293.285
A,9,3476621,vowelstep3.wav,None,1000,26,3770632,325,295.285
A,9,3476621,silence.wav,None,1000,26,3772632,325,297.285
A,9,3476621,vowelstep1.wav,None,1000,26,3774632,324,299.285
A,9,3476621,sinestep1.wav,None,1000,26,3776632,332,301.285
A,9,3476621,sinestep7.wav,None,1000,26,3778632,344,303.285
A,9,3476621,vowelstep7.wav,None,1000,26,3780633,314,305.285
A,9,3476621,sinestep1_catch.wav,2,453,26,3782633,324,307.285
A,9,3476621,silence.wav,None,1000,26,3784632,870,309.285
A,9,3476621,silence.wav,None,1000,26,3786632,334,311.285
A,9,3476621,vowelstep7.wav,None,1000,26,3788632,333,313.285
A,9,3476621,sinestep1.wav,None,1000,26,3790632,333,315.285
A,9,3476621,vowelstep7.wav,None,1000,26,3792632,334,317.285
A,9,3476621,vowelstep7.wav,None,1000,26,3794632,343,319.285