block,count_main_sequence,first_trial_timestamp,fname,response_catch_response,response_time_catch_response,subject_nr,time_stimulus,time_to_pad,timing
P,NA,314267,vowelstep1_catch.wav,None,1000,20,314282,0,
P,NA,314267,sinestep7_catch.wav,None,1000,20,316282,427,
P,NA,314267,vowelstep5_catch.wav,1,462,20,318282,430,
P,NA,314267,sinestep7.wav,None,1000,20,320283,961,
P,NA,314267,sinestep7.wav,None,1000,20,322283,441,
P,NA,314267,sinestep3.wav,None,1000,20,324283,440,
P,NA,314267,sinestep1.wav,None,1000,20,326283,438,
P,NA,314267,vowelstep7.wav,None,1000,20,328283,419,
P,NA,314267,vowelstep3.wav,None,1000,20,330282,430,
P,NA,314267,silence.wav,None,1000,20,332282,431,
P,NA,314267,sinestep1.wav,None,1000,20,334282,438,
P,NA,314267,vowelstep1.wav,None,1000,20,336283,439,
P,NA,314267,sinestep5.wav,None,1000,20,338283,437,
P,NA,314267,sinestep1.wav,None,1000,20,340283,439,
P,NA,314267,sinestep1.wav,None,1000,20,342283,430,
P,NA,314267,vowelstep1.wav,None,1000,20,344283,427,
P,NA,314267,silence.wav,None,1000,20,346283,428,
P,NA,314267,silence.wav,None,1000,20,348283,430,
P,NA,314267,silence.wav,None,1000,20,350283,437,
P,NA,314267,sinestep3_catch.wav,1,227,20,352283,440,
P,NA,314267,vowelstep7.wav,None,1000,20,354283,1210,
P,NA,314267,silence.wav,None,1000,20,356283,417,
P,NA,314267,vowelstep7.wav,None,1000,20,358283,426,
P,NA,314267,vowelstep3.wav,None,1000,20,360283,430,
P,NA,314267,silence.wav,None,1000,20,362283,428,
P,NA,314267,vowelstep1.wav,None,1000,20,364283,437,
P,NA,314267,sinestep3.wav,None,1000,20,366283,437,
P,NA,314267,vowelstep1.wav,None,1000,20,368283,436,
P,NA,314267,silence.wav,None,1000,20,370283,449,
P,NA,314267,sinestep7.wav,None,1000,20,372284,429,
P,NA,314267,sinestep5_catch.wav,1,168,20,374284,427,
P,NA,314267,silence.wav,None,1000,20,376284,1258,
P,NA,314267,sinestep7.wav,None,1000,20,378283,437,
P,NA,314267,sinestep5.wav,None,1000,20,380283,435,
P,NA,314267,sinestep3.wav,None,1000,20,382283,436,
P,NA,314267,sinestep1_catch.wav,1,459,20,384283,448,
P,NA,314267,vowelstep3_catch.wav,1,255,20,386283,968,
P,NA,314267,vowelstep5_catch.wav,1,305,20,388283,1168,
P,NA,314267,vowelstep7.wav,None,1000,20,390284,1141,
P,NA,314267,silence.wav,None,1000,20,392284,427,
P,NA,314267,vowelstep7_catch.wav,1,392,20,394284,434,
P,NA,314267,vowelstep3.wav,None,1000,20,396284,1041,
P,NA,314267,silence.wav,None,1000,20,398284,445,
P,NA,314267,sinestep7_catch.wav,1,373,20,400284,416,
P,NA,314267,sinestep7.wav,None,1000,20,402283,1073,
P,NA,314267,vowelstep5.wav,None,1000,20,404283,437,
P,NA,314267,vowelstep3.wav,None,1000,20,406284,436,
P,NA,314267,sinestep5.wav,None,1000,20,408284,434,
P,NA,314267,sinestep5_catch.wav,1,229,20,410284,435,
P,NA,314267,sinestep3.wav,None,1000,20,412284,1206,
P,NA,314267,silence.wav,None,1000,20,414284,445,
P,NA,314267,vowelstep7.wav,None,1000,20,416284,445,
P,NA,314267,sinestep3_catch.wav,1,253,20,418284,455,
P,NA,314267,vowelstep5.wav,None,1000,20,420284,1171,
P,NA,314267,silence.wav,None,1000,20,422284,435,
P,NA,314267,sinestep1.wav,None,1000,20,424285,436,
P,NA,314267,vowelstep1.wav,None,1000,20,426284,444,
P,NA,314267,silence.wav,None,1000,20,428284,444,
P,NA,314267,silence.wav,None,1000,20,430284,444,
P,NA,314267,silence.wav,None,1000,20,432284,454,
P,NA,314267,sinestep1_catch.wav,1,127,20,434284,424,
P,NA,314267,sinestep1.wav,None,1000,20,436284,1307,
P,NA,314267,silence.wav,None,1000,20,438284,434,
P,NA,314267,vowelstep1_catch.wav,1,188,20,440284,434,
P,NA,314267,vowelstep5.wav,None,1000,20,442285,1254,
P,NA,314267,sinestep5.wav,None,1000,20,444285,443,
P,NA,314267,vowelstep3.wav,None,1000,20,446285,453,
P,NA,314267,silence.wav,None,1000,20,448285,452,
P,NA,314267,silence.wav,None,1000,20,450285,430,
P,NA,314267,sinestep7.wav,1,17,20,452284,433,
P,NA,314267,vowelstep5.wav,None,1000,20,454284,1413,
P,NA,314267,silence.wav,None,1000,20,456284,441,
P,NA,314267,vowelstep3_catch.wav,1,167,20,458284,440,
P,NA,314267,silence.wav,None,1000,20,460285,1282,
P,NA,314267,vowelstep5.wav,None,1000,20,462285,453,
P,NA,314267,vowelstep5_catch.wav,1,390,20,464285,433,
P,NA,314267,vowelstep7_catch.wav,1,455,20,466285,1038,
P,NA,314267,sinestep3.wav,None,1000,20,468285,977,
P,NA,314267,vowelstep5.wav,None,1000,20,470285,440,
P,NA,314267,vowelstep3.wav,None,1000,20,472285,442,
P,NA,314267,silence.wav,None,1000,20,474285,442,
P,NA,314267,sinestep3.wav,None,1000,20,476285,452,
P,NA,314267,silence.wav,None,1000,20,478285,430,
P,NA,314267,sinestep7_catch.wav,1,891,20,480285,432,
P,NA,314267,sinestep5_catch.wav,1,277,20,482285,539,
P,NA,314267,sinestep5.wav,None,1000,20,484285,1162,
P,NA,314267,sinestep5.wav,None,1000,20,486285,438,
P,NA,314267,vowelstep7.wav,None,1000,20,488285,438,
P,NA,314267,sinestep3_catch.wav,1,377,20,490285,451,
P,NA,314267,vowelstep1.wav,None,1000,20,492285,1045,
C,0,911460,sinestep1.wav,None,1000,20,911475,0,1.285
C,0,911460,vowelstep1.wav,None,1000,20,913476,344,3.285
C,0,911460,sinestep1.wav,None,1000,20,915476,327,5.285
C,0,911460,sinestep1.wav,None,1000,20,917476,329,7.285
C,0,911460,vowelstep1.wav,None,1000,20,919476,330,9.285
C,0,911460,sinestep1.wav,None,1000,20,921476,339,11.285
C,0,911460,sinestep7.wav,None,1000,20,923475,336,13.285
C,0,911460,vowelstep7.wav,None,1000,20,925475,338,15.285
C,0,911460,vowelstep3.wav,None,1000,20,927475,347,17.285
C,0,911460,vowelstep5.wav,None,1000,20,929475,325,19.285
C,0,911460,silence.wav,None,1000,20,931476,329,21.285
C,0,911460,sinestep3.wav,None,1000,20,933476,328,23.285
C,0,911460,vowelstep5.wav,None,1000,20,935476,336,25.285
C,0,911460,sinestep1.wav,None,1000,20,937476,336,27.285
C,0,911460,vowelstep1.wav,None,1000,20,939476,338,29.285
C,0,911460,vowelstep7.wav,None,1000,20,941476,348,31.285
C,0,911460,vowelstep3.wav,None,1000,20,943476,328,33.285
C,0,911460,sinestep1.wav,None,1000,20,945476,324,35.285
C,0,911460,sinestep5.wav,None,1000,20,947475,328,37.285
C,0,911460,silence.wav,None,1000,20,949476,337,39.285
C,0,911460,vowelstep7.wav,None,1000,20,951476,336,41.285
C,0,911460,vowelstep5.wav,None,1000,20,953476,335,43.285
C,0,911460,sinestep5.wav,None,1000,20,955476,344,45.285
C,0,911460,silence.wav,None,1000,20,957476,347,47.285
C,0,911460,sinestep5.wav,None,1000,20,959476,325,49.285
C,0,911460,sinestep1.wav,None,1000,20,961476,356,51.285
C,0,911460,silence.wav,None,1000,20,963476,322,53.285
C,0,911460,vowelstep1.wav,None,1000,20,965476,332,55.285
C,0,911460,vowelstep1.wav,None,1000,20,967477,334,57.285
C,0,911460,sinestep1.wav,None,1000,20,969477,344,59.285
C,0,911460,silence.wav,None,1000,20,971476,344,61.285
C,0,911460,vowelstep5.wav,None,1000,20,973476,347,63.285
C,0,911460,vowelstep3.wav,None,1000,20,975476,346,65.285
C,0,911460,vowelstep3.wav,None,1000,20,977476,336,67.285
C,0,911460,vowelstep7.wav,None,1000,20,979476,337,69.285
C,0,911460,silence.wav,None,1000,20,981476,336,71.285
C,0,911460,vowelstep3.wav,None,1000,20,983477,336,73.285
C,0,911460,silence.wav,None,1000,20,985477,342,75.285
C,0,911460,sinestep5.wav,None,1000,20,987477,336,77.285
C,0,911460,vowelstep7.wav,None,1000,20,989477,353,79.285
C,0,911460,vowelstep1_catch.wav,1,384,20,991477,333,81.285
C,0,911460,vowelstep3.wav,None,1000,20,993477,945,83.285
C,0,911460,sinestep7.wav,None,1000,20,995476,335,85.285
C,0,911460,vowelstep3.wav,None,1000,20,997476,346,87.285
C,0,911460,sinestep1.wav,None,1000,20,999476,341,89.285
C,0,911460,sinestep7.wav,None,1000,20,1001477,345,91.285
C,0,911460,sinestep7.wav,None,1000,20,1003477,338,93.285
C,0,911460,sinestep3.wav,None,1000,20,1005477,333,95.285
C,0,911460,vowelstep3_catch.wav,1,228,20,1007477,331,97.285
C,0,911460,sinestep5.wav,None,1000,20,1009477,1101,99.285
C,0,911460,sinestep5.wav,None,1000,20,1011477,344,101.285
C,0,911460,vowelstep3.wav,None,1000,20,1013477,340,103.285
C,0,911460,vowelstep5.wav,None,1000,20,1015477,341,105.285
C,0,911460,sinestep1.wav,None,1000,20,1017477,348,107.285
C,0,911460,sinestep3.wav,None,1000,20,1019478,328,109.285
C,0,911460,vowelstep5.wav,None,1000,20,1021477,331,111.285
C,0,911460,vowelstep7.wav,None,1000,20,1023477,332,113.285
C,0,911460,vowelstep1.wav,None,1000,20,1025477,330,115.285
C,0,911460,sinestep7.wav,None,1000,20,1027477,338,117.285
C,0,911460,sinestep3.wav,None,1000,20,1029477,342,119.285
C,0,911460,vowelstep1.wav,None,1000,20,1031477,342,121.285
C,0,911460,vowelstep1.wav,None,1000,20,1033477,323,123.285
C,0,911460,sinestep3.wav,None,1000,20,1035478,330,125.285
C,0,911460,silence.wav,None,1000,20,1037478,332,127.285
C,0,911460,silence.wav,None,1000,20,1039478,331,129.285
C,0,911460,vowelstep5_catch.wav,1,309,20,1041478,341,131.285
C,0,911460,vowelstep5.wav,None,1000,20,1043478,1028,133.285
C,0,911460,silence.wav,None,1000,20,1045477,339,135.285
C,0,911460,sinestep1.wav,None,1000,20,1047477,351,137.285
C,0,911460,vowelstep7.wav,None,1000,20,1049477,329,139.285
C,0,911460,sinestep7.wav,None,1000,20,1051477,330,141.285
C,0,911460,silence.wav,None,1000,20,1053478,330,143.285
C,0,911460,silence.wav,None,1000,20,1055478,339,145.285
C,0,911460,sinestep7.wav,None,1000,20,1057478,339,147.285
C,0,911460,vowelstep1.wav,None,1000,20,1059478,335,149.285
C,0,911460,vowelstep5.wav,None,1000,20,1061478,319,151.285
C,0,911460,vowelstep5.wav,None,1000,20,1063478,325,153.285
C,0,911460,vowelstep7.wav,None,1000,20,1065478,330,155.285
C,0,911460,sinestep7.wav,None,1000,20,1067478,328,157.285
C,0,911460,vowelstep1.wav,None,1000,20,1069477,339,159.285
C,0,911460,vowelstep3.wav,None,1000,20,1071478,289,161.285
C,0,911460,sinestep5.wav,None,1000,20,1073478,338,163.285
C,0,911460,sinestep7.wav,None,1000,20,1075478,347,165.285
C,0,911460,sinestep1.wav,None,1000,20,1077478,325,167.285
C,0,911460,sinestep7.wav,None,1000,20,1079478,329,169.285
C,0,911460,sinestep3.wav,None,1000,20,1081478,327,171.285
C,0,911460,silence.wav,None,1000,20,1083478,337,173.285
C,0,911460,vowelstep7.wav,None,1000,20,1085478,337,175.285
C,0,911460,sinestep7.wav,None,1000,20,1087478,337,177.285
C,0,911460,sinestep5.wav,None,1000,20,1089479,348,179.285
C,0,911460,vowelstep7.wav,None,1000,20,1091479,322,181.285
C,0,911460,vowelstep5.wav,None,1000,20,1093478,327,183.285
C,0,911460,vowelstep3.wav,None,1000,20,1095478,325,185.285
C,0,911460,vowelstep7_catch.wav,1,156,20,1097478,337,187.285
C,0,911460,vowelstep3.wav,None,1000,20,1099478,1179,189.285
C,0,911460,vowelstep5.wav,None,1000,20,1101478,338,191.285
C,0,911460,vowelstep7.wav,None,1000,20,1103478,347,193.285
C,0,911460,vowelstep7_catch.wav,1,398,20,1105479,317,195.285
C,0,911460,vowelstep5_catch.wav,1,254,20,1107479,924,197.285
C,0,911460,sinestep5.wav,None,1000,20,1109479,1071,199.285
C,0,911460,sinestep3.wav,None,1000,20,1111479,336,201.285
C,0,911460,vowelstep3_catch.wav,1,256,20,1113479,336,203.285
C,0,911460,vowelstep1_catch.wav,1,194,20,1115479,1077,205.285
C,0,911460,vowelstep5.wav,None,1000,20,1117478,1142,207.285
C,0,911460,vowelstep1.wav,None,1000,20,1119478,324,209.285
C,0,911460,sinestep1_catch.wav,1,359,20,1121478,326,211.285
C,0,911460,sinestep3_catch.wav,1,112,20,1123479,963,213.285
C,0,911460,sinestep1.wav,None,1000,20,1125479,1211,215.285
C,0,911460,vowelstep3.wav,None,1000,20,1127479,335,217.285
C,0,911460,sinestep3.wav,None,1000,20,1129479,336,219.285
C,0,911460,vowelstep5.wav,None,1000,20,1131479,344,221.285
C,0,911460,sinestep7.wav,None,1000,20,1133479,310,223.285
C,0,911460,sinestep1.wav,None,1000,20,1135479,322,225.285
C,0,911460,sinestep5_catch.wav,1,231,20,1137479,320,227.285
C,0,911460,vowelstep7.wav,None,1000,20,1139479,1100,229.285
C,0,911460,vowelstep3.wav,None,1000,20,1141480,333,231.285
C,0,911460,silence.wav,None,1000,20,1143479,333,233.285
C,0,911460,vowelstep1.wav,None,1000,20,1145463,326,235.285
C,0,911460,sinestep5.wav,None,1000,20,1147479,345,237.285
C,0,911460,sinestep1.wav,None,1000,20,1149479,323,239.285
C,0,911460,vowelstep7.wav,None,1000,20,1151479,324,241.285
C,0,911460,sinestep3.wav,None,1000,20,1153479,322,243.285
C,0,911460,sinestep3.wav,None,1000,20,1155479,330,245.285
C,0,911460,sinestep5.wav,None,1000,20,1157479,331,247.285
C,0,911460,vowelstep3.wav,None,1000,20,1159480,340,249.285
C,0,911460,sinestep3.wav,None,1000,20,1161463,342,251.285
C,0,911460,silence.wav,None,1000,20,1163463,339,253.285
C,0,911460,sinestep3.wav,None,1000,20,1165463,342,255.285
C,0,911460,vowelstep1.wav,None,1000,20,1167479,349,257.285
C,0,911460,silence.wav,None,1000,20,1169479,330,259.285
C,0,911460,vowelstep1.wav,None,1000,20,1171479,332,261.285
C,0,911460,silence.wav,None,1000,20,1173479,333,263.285
C,0,911460,sinestep7.wav,None,1000,20,1175480,343,265.285
C,0,911460,sinestep3.wav,None,1000,20,1177463,344,267.285
C,0,911460,vowelstep1.wav,None,1000,20,1179463,334,269.285
C,0,911460,sinestep7.wav,None,1000,20,1181463,352,271.285
C,0,911460,sinestep7_catch.wav,1,265,20,1183463,350,273.285
C,0,911460,vowelstep5.wav,None,1000,20,1185480,1081,275.285
C,0,911460,silence.wav,None,1000,20,1187480,331,277.285
C,0,911460,silence.wav,None,1000,20,1189480,337,279.285
C,0,911460,sinestep3.wav,None,1000,20,1191479,320,281.285
C,0,911460,vowelstep7.wav,None,1000,20,1193464,337,283.285
C,0,911460,sinestep5.wav,None,1000,20,1195464,346,285.285
C,0,911460,sinestep5.wav,None,1000,20,1197464,350,287.285
C,0,911460,vowelstep3.wav,None,1000,20,1199463,347,289.285
C,0,911460,sinestep3.wav,None,1000,20,1201463,358,291.285
C,0,911460,silence.wav,None,1000,20,1203480,338,293.285
C,0,911460,silence.wav,None,1000,20,1205480,341,295.285
C,0,911460,vowelstep7.wav,None,1000,20,1207480,341,297.285
C,0,911460,silence.wav,None,1000,20,1209463,317,299.285
C,0,911460,vowelstep5.wav,None,1000,20,1211464,349,301.285
C,0,911460,sinestep5.wav,None,1000,20,1213464,347,303.285
C,0,911460,silence.wav,None,1000,20,1215464,360,305.285
C,0,911460,silence.wav,None,1000,20,1217464,341,307.285
C,0,911460,silence.wav,None,1000,20,1219464,336,309.285
C,0,911460,sinestep7_catch.wav,1,397,20,1221464,339,311.285
C,0,911460,sinestep7.wav,None,1000,20,1223480,951,313.285
C,0,911460,sinestep5_catch.wav,1,247,20,1225463,329,315.285
C,0,911460,sinestep5.wav,None,1000,20,1227463,1096,317.285
C,0,911460,sinestep3_catch.wav,1,261,20,1229464,358,319.285
A,1,1285073,sinestep5_catch.wav,1,462,20,1285082,0,1.285
A,1,1285073,vowelstep1.wav,None,1000,20,1287082,875,3.285
A,1,1285073,vowelstep3.wav,None,1000,20,1289081,338,5.285
A,1,1285073,sinestep1.wav,None,1000,20,1291081,345,7.285
A,1,1285073,sinestep5_catch.wav,1,377,20,1293081,350,9.285
A,1,1285073,sinestep7.wav,None,1000,20,1295081,969,11.285
A,1,1285073,sinestep3.wav,None,1000,20,1297081,357,13.285
A,1,1285073,silence.wav,None,1000,20,1299082,328,15.285
A,1,1285073,vowelstep7.wav,None,1000,20,1301082,337,17.285
A,1,1285073,sinestep7.wav,None,1000,20,1303082,338,19.285
A,1,1285073,vowelstep5_catch.wav,1,275,20,1305082,344,21.285
A,1,1285073,sinestep7.wav,None,1000,20,1307082,1070,23.285
A,1,1285073,sinestep3.wav,None,1000,20,1309082,348,25.285
A,1,1285073,silence.wav,None,1000,20,1311082,349,27.285
A,1,1285073,sinestep3.wav,None,1000,20,1313081,358,29.285
A,1,1285073,sinestep5_catch.wav,1,258,20,1315081,338,31.285
A,1,1285073,sinestep1.wav,None,1000,20,1317082,1078,33.285
A,1,1285073,sinestep1.wav,None,1000,20,1319082,337,35.285
A,1,1285073,sinestep5.wav,None,1000,20,1321082,345,37.285
A,1,1285073,vowelstep3.wav,None,1000,20,1323082,348,39.285
A,1,1285073,vowelstep5.wav,None,1000,20,1325082,346,41.285
A,1,1285073,vowelstep3.wav,None,1000,20,1327082,328,43.285
A,1,1285073,vowelstep1.wav,None,1000,20,1329082,336,45.285
A,1,1285073,vowelstep3.wav,None,1000,20,1331082,305,47.285
A,1,1285073,sinestep3.wav,None,1000,20,1333083,341,49.285
A,1,1285073,sinestep7.wav,None,1000,20,1335083,340,51.285
A,1,1285073,sinestep5.wav,None,1000,20,1337082,346,53.285
A,1,1285073,vowelstep7_catch.wav,1,229,20,1339082,346,55.285
A,1,1285073,silence.wav,None,1000,20,1341082,1104,57.285
A,1,1285073,vowelstep3.wav,None,1000,20,1343082,336,59.285
A,1,1285073,vowelstep1.wav,None,1000,20,1345082,334,61.285
A,1,1285073,silence.wav,None,1000,20,1347082,336,63.285
A,1,1285073,sinestep3.wav,None,1000,20,1349082,347,65.285
A,1,1285073,sinestep7.wav,None,1000,20,1351083,347,67.285
A,1,1285073,sinestep5.wav,None,1000,20,1353083,345,69.285
A,1,1285073,sinestep5.wav,None,1000,20,1355083,350,71.285
A,1,1285073,sinestep7.wav,None,1000,20,1357083,334,73.285
A,1,1285073,sinestep1.wav,None,1000,20,1359083,335,75.285
A,1,1285073,sinestep5.wav,None,1000,20,1361083,331,77.285
A,1,1285073,vowelstep1.wav,None,1000,20,1363082,345,79.285
A,1,1285073,sinestep1.wav,None,1000,20,1365082,338,81.285
A,1,1285073,vowelstep5.wav,None,1000,20,1367082,339,83.285
A,1,1285073,sinestep1.wav,None,1000,20,1369083,324,85.285
A,1,1285073,silence.wav,None,1000,20,1371083,333,87.285
A,1,1285073,vowelstep1.wav,None,1000,20,1373083,332,89.285
A,1,1285073,sinestep3.wav,None,1000,20,1375083,333,91.285
A,1,1285073,vowelstep5.wav,None,1000,20,1377083,339,93.285
A,1,1285073,vowelstep5.wav,None,1000,20,1379083,343,95.285
A,1,1285073,vowelstep5.wav,None,1000,20,1381083,342,97.285
A,1,1285073,vowelstep7.wav,None,1000,20,1383083,343,99.285
A,1,1285073,vowelstep3.wav,None,1000,20,1385083,334,101.285
A,1,1285073,sinestep1.wav,None,1000,20,1387083,332,103.285
A,1,1285073,sinestep1.wav,None,1000,20,1389083,332,105.285
A,1,1285073,vowelstep7.wav,None,1000,20,1391083,329,107.285
A,1,1285073,vowelstep1.wav,None,1000,20,1393083,340,109.285
A,1,1285073,vowelstep7.wav,None,1000,20,1395083,340,111.285
A,1,1285073,silence.wav,None,1000,20,1397083,317,113.285
A,1,1285073,sinestep1.wav,None,1000,20,1399083,327,115.285
A,1,1285073,vowelstep1.wav,None,1000,20,1401083,332,117.285
A,1,1285073,silence.wav,None,1000,20,1403084,324,119.285
A,1,1285073,vowelstep1.wav,None,1000,20,1405084,341,121.285
A,1,1285073,vowelstep3.wav,None,1000,20,1407084,338,123.285
A,1,1285073,vowelstep1.wav,None,1000,20,1409084,338,125.285
A,1,1285073,sinestep7.wav,None,1000,20,1411083,337,127.285
A,1,1285073,silence.wav,None,1000,20,1413083,352,129.285
A,1,1285073,vowelstep1.wav,None,1000,20,1415083,351,131.285
A,1,1285073,silence.wav,None,1000,20,1417083,352,133.285
A,1,1285073,sinestep7.wav,None,1000,20,1419083,332,135.285
A,1,1285073,vowelstep5.wav,None,1000,20,1421084,341,137.285
A,1,1285073,sinestep7.wav,None,1000,20,1423084,340,139.285
A,1,1285073,sinestep3.wav,None,1000,20,1425084,351,141.285
A,1,1285073,vowelstep5.wav,None,1000,20,1427084,319,143.285
A,1,1285073,silence.wav,None,1000,20,1429084,331,145.285
A,1,1285073,sinestep3.wav,None,1000,20,1431084,328,147.285
A,1,1285073,sinestep5.wav,None,1000,20,1433084,335,149.285
A,1,1285073,sinestep3.wav,None,1000,20,1435083,339,151.285
A,1,1285073,vowelstep3.wav,None,1000,20,1437083,334,153.285
A,1,1285073,sinestep3.wav,None,1000,20,1439084,337,155.285
A,1,1285073,vowelstep7_catch.wav,1,619,20,1441084,348,157.285
A,1,1285073,vowelstep7.wav,None,1000,20,1443084,729,159.285
A,1,1285073,vowelstep5.wav,None,1000,20,1445084,349,161.285
A,1,1285073,sinestep5.wav,None,1000,20,1447084,358,163.285
A,1,1285073,silence.wav,None,1000,20,1449084,338,165.285
A,1,1285073,sinestep5.wav,None,1000,20,1451084,338,167.285
A,1,1285073,vowelstep5_catch.wav,1,332,20,1453084,337,169.285
A,1,1285073,silence.wav,None,1000,20,1455085,1008,171.285
A,1,1285073,sinestep7.wav,None,1000,20,1457085,345,173.285
A,1,1285073,sinestep5.wav,None,1000,20,1459084,347,175.285
A,1,1285073,sinestep7.wav,None,1000,20,1461084,329,177.285
A,1,1285073,vowelstep3.wav,None,1000,20,1463084,337,179.285
A,1,1285073,sinestep5.wav,None,1000,20,1465084,335,181.285
A,1,1285073,vowelstep1.wav,None,1000,20,1467084,337,183.285
A,1,1285073,vowelstep5.wav,None,1000,20,1469084,346,185.285
A,1,1285073,sinestep5.wav,None,1000,20,1471084,347,187.285
A,1,1285073,vowelstep1.wav,None,1000,20,1473085,347,189.285
A,1,1285073,silence.wav,None,1000,20,1475085,357,191.285
A,1,1285073,sinestep1.wav,None,1000,20,1477085,337,193.285
A,1,1285073,vowelstep5.wav,None,1000,20,1479085,333,195.285
A,1,1285073,sinestep3.wav,None,1000,20,1481085,337,197.285
A,1,1285073,silence.wav,None,1000,20,1483084,347,199.285
A,1,1285073,vowelstep3.wav,None,1000,20,1485085,344,201.285
A,1,1285073,vowelstep3_catch.wav,1,432,20,1487084,348,203.285
A,1,1285073,vowelstep5.wav,None,1000,20,1489084,926,205.285
A,1,1285073,vowelstep1_catch.wav,1,411,20,1491085,327,207.285
A,1,1285073,silence.wav,None,1000,20,1493085,919,209.285
A,1,1285073,sinestep3.wav,None,1000,20,1495085,336,211.285
A,1,1285073,vowelstep5.wav,None,1000,20,1497085,339,213.285
A,1,1285073,silence.wav,None,1000,20,1499085,345,215.285
A,1,1285073,sinestep5.wav,None,1000,20,1501085,343,217.285
A,1,1285073,vowelstep7.wav,None,1000,20,1503085,351,219.285
A,1,1285073,silence.wav,None,1000,20,1505085,335,221.285
A,1,1285073,vowelstep3.wav,None,1000,20,1507084,336,223.285
A,1,1285073,sinestep7.wav,None,1000,20,1509085,334,225.285
A,1,1285073,silence.wav,None,1000,20,1511085,345,227.285
A,1,1285073,vowelstep3.wav,None,1000,20,1513085,341,229.285
A,1,1285073,vowelstep5.wav,None,1000,20,1515085,344,231.285
A,1,1285073,vowelstep7.wav,None,1000,20,1517085,353,233.285
A,1,1285073,vowelstep3.wav,None,1000,20,1519085,333,235.285
A,1,1285073,vowelstep5.wav,None,1000,20,1521085,336,237.285
A,1,1285073,sinestep1_catch.wav,1,434,20,1523085,331,239.285
A,1,1285073,sinestep3.wav,None,1000,20,1525086,904,241.285
A,1,1285073,sinestep1.wav,None,1000,20,1527086,344,243.285
A,1,1285073,sinestep3_catch.wav,1,194,20,1529086,345,245.285
A,1,1285073,sinestep7.wav,None,1000,20,1531086,1129,247.285
A,1,1285073,vowelstep1.wav,None,1000,20,1533085,325,249.285
A,1,1285073,sinestep3.wav,None,1000,20,1535085,335,251.285
A,1,1285073,vowelstep7.wav,None,1000,20,1537085,335,253.285
A,1,1285073,silence.wav,None,1000,20,1539085,342,255.285
A,1,1285073,sinestep1.wav,None,1000,20,1541085,342,257.285
A,1,1285073,silence.wav,None,1000,20,1543086,341,259.285
A,1,1285073,vowelstep5.wav,None,1000,20,1545086,341,261.285
A,1,1285073,sinestep5_catch.wav,1,233,20,1547086,333,263.285
A,1,1285073,vowelstep7.wav,None,1000,20,1549086,1097,265.285
A,1,1285073,sinestep3.wav,None,1000,20,1551086,331,267.285
A,1,1285073,vowelstep1.wav,None,1000,20,1553086,333,269.285
A,1,1285073,vowelstep3.wav,None,1000,20,1555086,342,271.285
A,1,1285073,sinestep7_catch.wav,1,148,20,1557085,343,273.285
A,1,1285073,silence.wav,None,1000,20,1559085,1200,275.285
A,1,1285073,vowelstep7.wav,None,1000,20,1561086,323,277.285
A,1,1285073,sinestep7.wav,None,1000,20,1563086,323,279.285
A,1,1285073,sinestep1.wav,None,1000,20,1565086,331,281.285
A,1,1285073,vowelstep7.wav,None,1000,20,1567086,326,283.285
A,1,1285073,sinestep5.wav,None,1000,20,1569086,343,285.285
A,1,1285073,sinestep5.wav,None,1000,20,1571086,342,287.285
A,1,1285073,sinestep7_catch.wav,1,272,20,1573086,340,289.285
A,1,1285073,sinestep5.wav,None,1000,20,1575086,1056,291.285
A,1,1285073,silence.wav,None,1000,20,1577086,332,293.285
A,1,1285073,vowelstep3.wav,None,1000,20,1579087,328,295.285
A,1,1285073,silence.wav,None,1000,20,1581086,330,297.285
A,1,1285073,vowelstep1.wav,None,1000,20,1583086,340,299.285
A,1,1285073,sinestep1.wav,None,1000,20,1585086,341,301.285
A,1,1285073,sinestep7.wav,None,1000,20,1587086,350,303.285
A,1,1285073,vowelstep7.wav,None,1000,20,1589086,351,305.285
A,1,1285073,sinestep1_catch.wav,1,198,20,1591086,330,307.285
A,1,1285073,silence.wav,None,1000,20,1593086,1133,309.285
A,1,1285073,silence.wav,None,1000,20,1595087,332,311.285
A,1,1285073,vowelstep7.wav,None,1000,20,1597087,341,313.285
A,1,1285073,sinestep1.wav,None,1000,20,1599087,340,315.285
A,1,1285073,vowelstep7.wav,None,1000,20,1601087,341,317.285
A,1,1285073,vowelstep7.wav,None,1000,20,1603087,350,319.285
J,2,1662207,sinestep5_catch.wav,1,611,20,1662221,0,1.285
J,2,1662207,sinestep5.wav,None,1000,20,1664220,728,3.285
J,2,1662207,sinestep3.wav,None,1000,20,1666221,348,5.285
J,2,1662207,sinestep1.wav,None,1000,20,1668221,329,7.285
J,2,1662207,sinestep7.wav,None,1000,20,1670221,331,9.285
J,2,1662207,vowelstep3.wav,None,1000,20,1672221,325,11.285
J,2,1662207,sinestep1.wav,None,1000,20,1674221,339,13.285
J,2,1662207,vowelstep5.wav,None,1000,20,1676221,341,15.285
J,2,1662207,vowelstep3.wav,None,1000,20,1678221,338,17.285
J,2,1662207,vowelstep1.wav,None,1000,20,1680221,314,19.285
J,2,1662207,vowelstep1.wav,None,1000,20,1682221,326,21.285
J,2,1662207,sinestep3.wav,None,1000,20,1684222,329,23.285
J,2,1662207,silence.wav,None,1000,20,1686221,325,25.285
J,2,1662207,vowelstep7.wav,None,1000,20,1688221,339,27.285
J,2,1662207,sinestep3.wav,None,1000,20,1690221,338,29.285
J,2,1662207,sinestep7.wav,None,1000,20,1692221,335,31.285
J,2,1662207,silence.wav,None,1000,20,1694221,346,33.285
J,2,1662207,vowelstep5.wav,None,1000,20,1696221,328,35.285
J,2,1662207,sinestep1.wav,None,1000,20,1698221,329,37.285
J,2,1662207,sinestep1_catch.wav,1,489,20,1700222,327,39.285
J,2,1662207,sinestep7.wav,None,1000,20,1702222,833,41.285
J,2,1662207,vowelstep7.wav,None,1000,20,1704222,334,43.285
J,2,1662207,sinestep3_catch.wav,1,404,20,1706222,338,45.285
J,2,1662207,vowelstep3.wav,None,1000,20,1708222,941,47.285
J,2,1662207,vowelstep7.wav,None,1000,20,1710222,345,49.285
J,2,1662207,sinestep1.wav,None,1000,20,1712221,325,51.285
J,2,1662207,vowelstep3.wav,None,1000,20,1714221,325,53.285
J,2,1662207,vowelstep1.wav,None,1000,20,1716221,337,55.285
J,2,1662207,sinestep5.wav,None,1000,20,1718222,333,57.285
J,2,1662207,sinestep5_catch.wav,1,393,20,1720222,336,59.285
J,2,1662207,sinestep5.wav,None,1000,20,1722222,950,61.285
J,2,1662207,vowelstep7.wav,None,1000,20,1724222,317,63.285
J,2,1662207,sinestep7.wav,None,1000,20,1726222,326,65.285
J,2,1662207,vowelstep1.wav,None,1000,20,1728222,326,67.285
J,2,1662207,sinestep7_catch.wav,1,264,20,1730222,333,69.285
J,2,1662207,silence.wav,None,1000,20,1732222,1071,71.285
J,2,1662207,vowelstep5.wav,None,1000,20,1734222,334,73.285
J,2,1662207,sinestep5.wav,None,1000,20,1736222,332,75.285
J,2,1662207,sinestep5.wav,None,1000,20,1738222,344,77.285
J,2,1662207,vowelstep3.wav,None,1000,20,1740222,324,79.285
J,2,1662207,vowelstep5.wav,None,1000,20,1742222,340,81.285
J,2,1662207,sinestep3.wav,None,1000,20,1744222,331,83.285
J,2,1662207,silence.wav,None,1000,20,1746222,335,85.285
J,2,1662207,vowelstep3.wav,None,1000,20,1748222,332,87.285
J,2,1662207,vowelstep7.wav,None,1000,20,1750222,345,89.285
J,2,1662207,silence.wav,None,1000,20,1752222,344,91.285
J,2,1662207,sinestep3.wav,None,1000,20,1754223,344,93.285
J,2,1662207,silence.wav,None,1000,20,1756223,341,95.285
J,2,1662207,sinestep1.wav,None,1000,20,1758223,329,97.285
J,2,1662207,sinestep5_catch.wav,1,449,20,1760222,330,99.285
J,2,1662207,sinestep7.wav,None,1000,20,1762222,879,101.285
J,2,1662207,sinestep5.wav,None,1000,20,1764222,330,103.285
J,2,1662207,sinestep5.wav,None,1000,20,1766222,344,105.285
J,2,1662207,sinestep3.wav,None,1000,20,1768222,338,107.285
J,2,1662207,sinestep3_catch.wav,1,419,20,1770223,344,109.285
J,2,1662207,sinestep3.wav,None,1000,20,1772223,898,111.285
J,2,1662207,silence.wav,None,1000,20,1774223,328,113.285
J,2,1662207,sinestep1.wav,None,1000,20,1776223,333,115.285
J,2,1662207,silence.wav,None,1000,20,1778223,344,117.285
J,2,1662207,vowelstep3.wav,None,1000,20,1780223,342,119.285
J,2,1662207,vowelstep5.wav,None,1000,20,1782223,341,121.285
J,2,1662207,vowelstep7.wav,None,1000,20,1784222,338,123.285
J,2,1662207,silence.wav,None,1000,20,1786222,323,125.285
J,2,1662207,sinestep1.wav,None,1000,20,1788223,333,127.285
J,2,1662207,sinestep3.wav,None,1000,20,1790223,332,129.285
J,2,1662207,sinestep7.wav,None,1000,20,1792223,327,131.285
J,2,1662207,silence.wav,None,1000,20,1794223,342,133.285
J,2,1662207,sinestep1.wav,None,1000,20,1796223,341,135.285
J,2,1662207,vowelstep7.wav,None,1000,20,1798223,342,137.285
J,2,1662207,sinestep5.wav,None,1000,20,1800223,348,139.285
J,2,1662207,vowelstep1.wav,None,1000,20,1802223,331,141.285
J,2,1662207,vowelstep7.wav,None,1000,20,1804223,331,143.285
J,2,1662207,vowelstep3.wav,None,1000,20,1806224,333,145.285
J,2,1662207,vowelstep3.wav,None,1000,20,1808223,331,147.285
J,2,1662207,sinestep7.wav,None,1000,20,1810223,338,149.285
J,2,1662207,vowelstep5.wav,None,1000,20,1812223,340,151.285
J,2,1662207,silence.wav,None,1000,20,1814223,349,153.285
J,2,1662207,sinestep1.wav,None,1000,20,1816223,322,155.285
J,2,1662207,sinestep3.wav,None,1000,20,1818223,331,157.285
J,2,1662207,silence.wav,None,1000,20,1820223,331,159.285
J,2,1662207,sinestep1.wav,None,1000,20,1822224,335,161.285
J,2,1662207,vowelstep7.wav,None,1000,20,1824224,337,163.285
J,2,1662207,vowelstep7.wav,None,1000,20,1826224,331,165.285
J,2,1662207,sinestep1_catch.wav,1,367,20,1828224,350,167.285
J,2,1662207,vowelstep1_catch.wav,1,426,20,1830224,959,169.285
J,2,1662207,vowelstep1.wav,None,1000,20,1832224,904,171.285
J,2,1662207,vowelstep7.wav,None,1000,20,1834223,330,173.285
J,2,1662207,sinestep1.wav,None,1000,20,1836223,325,175.285
J,2,1662207,vowelstep5.wav,None,1000,20,1838223,340,177.285
J,2,1662207,vowelstep5.wav,None,1000,20,1840224,339,179.285
J,2,1662207,sinestep5.wav,None,1000,20,1842224,342,181.285
J,2,1662207,sinestep7.wav,None,1000,20,1844224,319,183.285
J,2,1662207,sinestep7.wav,None,1000,20,1846224,324,185.285
J,2,1662207,sinestep1.wav,None,1000,20,1848224,330,187.285
J,2,1662207,vowelstep1.wav,None,1000,20,1850224,336,189.285
J,2,1662207,silence.wav,None,1000,20,1852224,338,191.285
J,2,1662207,sinestep5.wav,None,1000,20,1854224,337,193.285
J,2,1662207,vowelstep5.wav,None,1000,20,1856224,339,195.285
J,2,1662207,vowelstep1.wav,None,1000,20,1858224,327,197.285
J,2,1662207,vowelstep1.wav,None,1000,20,1860224,323,199.285
J,2,1662207,sinestep3.wav,None,1000,20,1862224,323,201.285
J,2,1662207,sinestep3.wav,None,1000,20,1864224,322,203.285
J,2,1662207,silence.wav,None,1000,20,1866224,333,205.285
J,2,1662207,sinestep5.wav,None,1000,20,1868224,333,207.285
J,2,1662207,vowelstep1.wav,None,1000,20,1870224,337,209.285
J,2,1662207,vowelstep5.wav,None,1000,20,1872224,347,211.285
J,2,1662207,vowelstep3.wav,None,1000,20,1874224,323,213.285
J,2,1662207,vowelstep3.wav,None,1000,20,1876225,326,215.285
J,2,1662207,silence.wav,None,1000,20,1878225,322,217.285
J,2,1662207,sinestep1.wav,None,1000,20,1880225,338,219.285
J,2,1662207,vowelstep3.wav,None,1000,20,1882224,338,221.285
J,2,1662207,sinestep7.wav,None,1000,20,1884224,334,223.285
J,2,1662207,vowelstep7.wav,None,1000,20,1886224,317,225.285
J,2,1662207,silence.wav,None,1000,20,1888224,323,227.285
J,2,1662207,vowelstep5.wav,None,1000,20,1890224,322,229.285
J,2,1662207,silence.wav,None,1000,20,1892225,327,231.285
J,2,1662207,sinestep3.wav,None,1000,20,1894225,335,233.285
J,2,1662207,vowelstep5.wav,None,1000,20,1896225,336,235.285
J,2,1662207,vowelstep3.wav,None,1000,20,1898225,334,237.285
J,2,1662207,vowelstep5.wav,None,1000,20,1900225,345,239.285
J,2,1662207,vowelstep7.wav,None,1000,20,1902225,326,241.285
J,2,1662207,vowelstep1.wav,None,1000,20,1904225,325,243.285
J,2,1662207,sinestep7.wav,None,1000,20,1906224,324,245.285
J,2,1662207,sinestep7.wav,None,1000,20,1908224,332,247.285
J,2,1662207,silence.wav,None,1000,20,1910225,331,249.285
J,2,1662207,vowelstep1.wav,None,1000,20,1912225,334,251.285
J,2,1662207,vowelstep3_catch.wav,1,428,20,1914225,312,253.285
J,2,1662207,vowelstep1.wav,None,1000,20,1916225,896,255.285
J,2,1662207,vowelstep5_catch.wav,1,407,20,1918225,321,257.285
J,2,1662207,silence.wav,None,1000,20,1920225,915,259.285
J,2,1662207,sinestep5.wav,None,1000,20,1922225,336,261.285
J,2,1662207,vowelstep1.wav,None,1000,20,1924225,329,263.285
J,2,1662207,sinestep5.wav,None,1000,20,1926225,335,265.285
J,2,1662207,vowelstep3.wav,None,1000,20,1928226,343,267.285
J,2,1662207,sinestep5.wav,None,1000,20,1930225,323,269.285
J,2,1662207,sinestep7.wav,None,1000,20,1932225,322,271.285
J,2,1662207,silence.wav,None,1000,20,1934225,319,273.285
J,2,1662207,vowelstep7_catch.wav,1,389,20,1936225,330,275.285
J,2,1662207,sinestep3.wav,None,1000,20,1938225,939,277.285
J,2,1662207,vowelstep5.wav,None,1000,20,1940225,333,279.285
J,2,1662207,silence.wav,None,1000,20,1942225,344,281.285
J,2,1662207,silence.wav,None,1000,20,1944225,322,283.285
J,2,1662207,silence.wav,None,1000,20,1946226,321,285.285
J,2,1662207,vowelstep7.wav,None,1000,20,1948226,322,287.285
J,2,1662207,sinestep3.wav,None,1000,20,1950226,332,289.285
J,2,1662207,vowelstep5_catch.wav,1,437,20,1952226,332,291.285
J,2,1662207,silence.wav,None,1000,20,1954226,890,293.285
J,2,1662207,sinestep7.wav,None,1000,20,1956225,331,295.285
J,2,1662207,vowelstep1.wav,None,1000,20,1958225,313,297.285
J,2,1662207,silence.wav,None,1000,20,1960225,321,299.285
J,2,1662207,sinestep1.wav,None,1000,20,1962226,317,301.285
J,2,1662207,sinestep5.wav,None,1000,20,1964226,328,303.285
J,2,1662207,vowelstep5.wav,None,1000,20,1966226,326,305.285
J,2,1662207,vowelstep3.wav,None,1000,20,1968226,327,307.285
J,2,1662207,sinestep7.wav,None,1000,20,1970226,329,309.285
J,2,1662207,vowelstep7.wav,None,1000,20,1972226,316,311.285
J,2,1662207,vowelstep3_catch.wav,1,373,20,1974226,321,313.285
J,2,1662207,vowelstep1_catch.wav,1,386,20,1976226,945,315.285
J,2,1662207,sinestep3.wav,None,1000,20,1978226,934,317.285
J,2,1662207,sinestep1.wav,None,1000,20,1980226,332,319.285
F,3,2035210,sinestep1.wav,None,1000,20,2035227,0,1.285
F,3,2035210,vowelstep5.wav,None,1000,20,2037227,326,3.285
F,3,2035210,vowelstep3.wav,None,1000,20,2039227,326,5.285
F,3,2035210,sinestep5.wav,None,1000,20,2041227,334,7.285
F,3,2035210,vowelstep7.wav,None,1000,20,2043227,334,9.285
F,3,2035210,silence.wav,None,1000,20,2045227,341,11.285
F,3,2035210,vowelstep5.wav,None,1000,20,2047227,340,13.285
F,3,2035210,sinestep3.wav,None,1000,20,2049227,349,15.285
F,3,2035210,sinestep3.wav,None,1000,20,2051228,326,17.285
F,3,2035210,silence.wav,None,1000,20,2053227,329,19.285
F,3,2035210,vowelstep7.wav,None,1000,20,2055227,323,21.285
F,3,2035210,vowelstep7.wav,None,1000,20,2057227,338,23.285
F,3,2035210,vowelstep1_catch.wav,2,315,20,2059227,338,25.285
F,3,2035210,vowelstep3_catch.wav,2,285,20,2061227,1021,27.285
F,3,2035210,vowelstep1.wav,None,1000,20,2063227,1029,29.285
F,3,2035210,sinestep5.wav,None,1000,20,2065227,328,31.285
F,3,2035210,sinestep5.wav,None,1000,20,2067228,327,33.285
F,3,2035210,vowelstep7.wav,None,1000,20,2069228,337,35.285
F,3,2035210,sinestep3.wav,None,1000,20,2071228,336,37.285
F,3,2035210,sinestep7.wav,None,1000,20,2073228,336,39.285
F,3,2035210,vowelstep5_catch.wav,2,370,20,2075228,335,41.285
F,3,2035210,sinestep1.wav,None,1000,20,2077227,950,43.285
F,3,2035210,vowelstep7_catch.wav,2,259,20,2079227,326,45.285
F,3,2035210,vowelstep3.wav,None,1000,20,2081227,1063,47.285
F,3,2035210,sinestep1.wav,None,1000,20,2083227,324,49.285
F,3,2035210,sinestep7.wav,None,1000,20,2085228,331,51.285
F,3,2035210,silence.wav,None,1000,20,2087228,332,53.285
F,3,2035210,sinestep7.wav,None,1000,20,2089228,335,55.285
F,3,2035210,vowelstep1.wav,None,1000,20,2091228,343,57.285
F,3,2035210,vowelstep3.wav,None,1000,20,2093228,325,59.285
F,3,2035210,vowelstep7_catch.wav,2,435,20,2095228,325,61.285
F,3,2035210,sinestep5.wav,None,1000,20,2097228,889,63.285
F,3,2035210,sinestep3.wav,None,1000,20,2099228,334,65.285
F,3,2035210,vowelstep3.wav,None,1000,20,2101227,335,67.285
F,3,2035210,silence.wav,None,1000,20,2103228,330,69.285
F,3,2035210,vowelstep1.wav,None,1000,20,2105228,343,71.285
F,3,2035210,vowelstep1.wav,None,1000,20,2107228,320,73.285
F,3,2035210,vowelstep5_catch.wav,2,211,20,2109228,325,75.285
F,3,2035210,silence.wav,None,1000,20,2111228,1108,77.285
F,3,2035210,vowelstep3.wav,None,1000,20,2113228,333,79.285
F,3,2035210,vowelstep5.wav,None,1000,20,2115228,335,81.285
F,3,2035210,vowelstep3_catch.wav,2,186,20,2117228,330,83.285
F,3,2035210,vowelstep3.wav,None,1000,20,2119228,1153,85.285
F,3,2035210,sinestep7.wav,None,1000,20,2121229,323,87.285
F,3,2035210,vowelstep1.wav,None,1000,20,2123229,319,89.285
F,3,2035210,sinestep1.wav,None,1000,20,2125228,316,91.285
F,3,2035210,vowelstep1_catch.wav,2,314,20,2127228,333,93.285
F,3,2035210,vowelstep5.wav,None,1000,20,2129228,1014,95.285
F,3,2035210,sinestep7.wav,None,1000,20,2131228,327,97.285
F,3,2035210,vowelstep7.wav,None,1000,20,2133228,342,99.285
F,3,2035210,vowelstep3.wav,None,1000,20,2135228,308,101.285
F,3,2035210,sinestep3.wav,None,1000,20,2137229,321,103.285
F,3,2035210,silence.wav,None,1000,20,2139229,319,105.285
F,3,2035210,sinestep1.wav,None,1000,20,2141229,332,107.285
F,3,2035210,sinestep1.wav,None,1000,20,2143229,330,109.285
F,3,2035210,silence.wav,None,1000,20,2145229,328,111.285
F,3,2035210,sinestep7.wav,None,1000,20,2147229,331,113.285
F,3,2035210,vowelstep3.wav,None,1000,20,2149229,321,115.285
F,3,2035210,sinestep3.wav,None,1000,20,2151228,319,117.285
F,3,2035210,vowelstep3.wav,None,1000,20,2153228,322,119.285
F,3,2035210,vowelstep7.wav,None,1000,20,2155229,332,121.285
F,3,2035210,vowelstep7.wav,None,1000,20,2157213,331,123.285
F,3,2035210,vowelstep5.wav,None,1000,20,2159229,351,125.285
F,3,2035210,sinestep1.wav,None,1000,20,2161229,331,127.285
F,3,2035210,silence.wav,None,1000,20,2163229,311,129.285
F,3,2035210,sinestep1.wav,None,1000,20,2165229,318,131.285
F,3,2035210,sinestep3.wav,None,1000,20,2167229,320,133.285
F,3,2035210,sinestep1_catch.wav,2,327,20,2169229,326,135.285
F,3,2035210,sinestep3.wav,None,1000,20,2171229,1002,137.285
F,3,2035210,sinestep3.wav,None,1000,20,2173213,330,139.285
F,3,2035210,silence.wav,None,1000,20,2175213,361,141.285
F,3,2035210,silence.wav,None,1000,20,2177229,340,143.285
F,3,2035210,sinestep7.wav,None,1000,20,2179229,319,145.285
F,3,2035210,sinestep5.wav,None,1000,20,2181229,320,147.285
F,3,2035210,vowelstep1.wav,None,1000,20,2183229,320,149.285
F,3,2035210,sinestep7.wav,None,1000,20,2185229,331,151.285
F,3,2035210,silence.wav,None,1000,20,2187229,328,153.285
F,3,2035210,sinestep3_catch.wav,2,302,20,2189229,329,155.285
F,3,2035210,vowelstep5.wav,None,1000,20,2191213,1035,157.285
F,3,2035210,sinestep3.wav,None,1000,20,2193213,341,159.285
F,3,2035210,vowelstep5.wav,None,1000,20,2195213,339,161.285
F,3,2035210,sinestep3.wav,None,1000,20,2197230,350,163.285
F,3,2035210,vowelstep3.wav,None,1000,20,2199229,320,165.285
F,3,2035210,vowelstep1.wav,None,1000,20,2201229,328,167.285
F,3,2035210,sinestep5.wav,None,1000,20,2203229,325,169.285
F,3,2035210,vowelstep5.wav,None,1000,20,2205213,309,171.285
F,3,2035210,vowelstep1.wav,None,1000,20,2207213,339,173.285
F,3,2035210,vowelstep1.wav,None,1000,20,2209213,336,175.285
F,3,2035210,sinestep7.wav,None,1000,20,2211213,348,177.285
F,3,2035210,vowelstep1.wav,None,1000,20,2213230,345,179.285
F,3,2035210,sinestep5.wav,None,1000,20,2215230,328,181.285
F,3,2035210,vowelstep7.wav,None,1000,20,2217230,325,183.285
F,3,2035210,sinestep1.wav,None,1000,20,2219230,336,185.285
F,3,2035210,vowelstep7.wav,None,1000,20,2221213,318,187.285
F,3,2035210,sinestep5.wav,None,1000,20,2223213,336,189.285
F,3,2035210,vowelstep5.wav,None,1000,20,2225214,347,191.285
F,3,2035210,silence.wav,None,1000,20,2227214,345,193.285
F,3,2035210,sinestep7.wav,None,1000,20,2229214,345,195.285
F,3,2035210,vowelstep5.wav,None,1000,20,2231213,357,197.285
F,3,2035210,vowelstep7.wav,None,1000,20,2233230,328,199.285
F,3,2035210,silence.wav,None,1000,20,2235230,302,201.285
F,3,2035210,vowelstep1.wav,None,1000,20,2237213,316,203.285
F,3,2035210,vowelstep7.wav,None,1000,20,2239213,348,205.285
F,3,2035210,vowelstep7.wav,None,1000,20,2241213,347,207.285
F,3,2035210,vowelstep3.wav,None,1000,20,2243214,345,209.285
F,3,2035210,vowelstep3.wav,None,1000,20,2245214,352,211.285
F,3,2035210,silence.wav,None,1000,20,2247214,336,213.285
F,3,2035210,sinestep7.wav,None,1000,20,2249214,336,215.285
F,3,2035210,sinestep1.wav,None,1000,20,2251230,336,217.285
F,3,2035210,silence.wav,None,1000,20,2253214,346,219.285
F,3,2035210,vowelstep1.wav,None,1000,20,2255213,346,221.285
F,3,2035210,sinestep5_catch.wav,2,373,20,2257213,346,223.285
F,3,2035210,sinestep1.wav,None,1000,20,2259213,970,225.285
F,3,2035210,silence.wav,None,1000,20,2261214,325,227.285
F,3,2035210,sinestep7.wav,None,1000,20,2263214,336,229.285
F,3,2035210,sinestep7.wav,None,1000,20,2265214,334,231.285
F,3,2035210,silence.wav,None,1000,20,2267214,335,233.285
F,3,2035210,vowelstep5.wav,None,1000,20,2269214,344,235.285
F,3,2035210,sinestep7.wav,None,1000,20,2271214,340,237.285
F,3,2035210,sinestep5.wav,None,1000,20,2273214,346,239.285
F,3,2035210,sinestep5.wav,None,1000,20,2275214,334,241.285
F,3,2035210,silence.wav,None,1000,20,2277215,333,243.285
F,3,2035210,vowelstep3.wav,None,1000,20,2279215,333,245.285
F,3,2035210,vowelstep3.wav,None,1000,20,2281214,329,247.285
F,3,2035210,silence.wav,None,1000,20,2283214,340,249.285
F,3,2035210,sinestep1.wav,None,1000,20,2285214,341,251.285
F,3,2035210,sinestep1.wav,None,1000,20,2287214,354,253.285
F,3,2035210,vowelstep5.wav,None,1000,20,2289214,324,255.285
F,3,2035210,silence.wav,None,1000,20,2291214,335,257.285
F,3,2035210,sinestep5.wav,None,1000,20,2293214,334,259.285
F,3,2035210,sinestep5.wav,None,1000,20,2295215,334,261.285
F,3,2035210,sinestep5.wav,None,1000,20,2297215,343,263.285
F,3,2035210,sinestep7.wav,None,1000,20,2299215,345,265.285
F,3,2035210,sinestep7_catch.wav,2,329,20,2301215,342,267.285
F,3,2035210,sinestep7_catch.wav,2,84,20,2303215,1022,269.285
F,3,2035210,sinestep1.wav,None,1000,20,2305214,1250,271.285
F,3,2035210,vowelstep7.wav,None,1000,20,2307214,334,273.285
F,3,2035210,sinestep3.wav,None,1000,20,2309214,334,275.285
F,3,2035210,sinestep3.wav,None,1000,20,2311214,343,277.285
F,3,2035210,silence.wav,None,1000,20,2313215,344,279.285
F,3,2035210,sinestep5_catch.wav,2,297,20,2315215,340,281.285
F,3,2035210,sinestep5.wav,None,1000,20,2317215,1051,283.285
F,3,2035210,silence.wav,None,1000,20,2319215,351,285.285
F,3,2035210,vowelstep5.wav,None,1000,20,2321215,353,287.285
F,3,2035210,silence.wav,None,1000,20,2323215,362,289.285
F,3,2035210,sinestep1.wav,None,1000,20,2325215,338,291.285
F,3,2035210,sinestep3.wav,None,1000,20,2327215,338,293.285
F,3,2035210,vowelstep3.wav,None,1000,20,2329214,343,295.285
F,3,2035210,silence.wav,None,1000,20,2331215,351,297.285
F,3,2035210,sinestep5.wav,None,1000,20,2333215,354,299.285
F,3,2035210,vowelstep5.wav,None,1000,20,2335215,351,301.285
F,3,2035210,vowelstep5.wav,None,1000,20,2337215,356,303.285
F,3,2035210,vowelstep1.wav,None,1000,20,2339215,341,305.285
F,3,2035210,sinestep3.wav,None,1000,20,2341215,341,307.285
F,3,2035210,silence.wav,None,1000,20,2343215,341,309.285
F,3,2035210,sinestep3_catch.wav,2,369,20,2345215,351,311.285
F,3,2035210,vowelstep1.wav,None,1000,20,2347216,980,313.285
F,3,2035210,vowelstep7.wav,None,1000,20,2349216,345,315.285
F,3,2035210,vowelstep7.wav,None,1000,20,2351216,356,317.285
F,3,2035210,vowelstep1.wav,None,1000,20,2353215,329,319.285
E,4,2412905,vowelstep7.wav,None,1000,20,2412916,0,1.285
E,4,2412905,sinestep3.wav,None,1000,20,2414916,341,3.285
E,4,2412905,sinestep5.wav,None,1000,20,2416917,340,5.285
E,4,2412905,sinestep1.wav,None,1000,20,2418917,341,7.285
E,4,2412905,sinestep5.wav,None,1000,20,2420917,348,9.285
E,4,2412905,silence.wav,None,1000,20,2422917,331,11.285
E,4,2412905,vowelstep1.wav,None,1000,20,2424917,329,13.285
E,4,2412905,vowelstep7.wav,None,1000,20,2426916,330,15.285
E,4,2412905,vowelstep1.wav,None,1000,20,2428916,336,17.285
E,4,2412905,sinestep1_catch.wav,2,334,20,2430916,341,19.285
E,4,2412905,vowelstep5.wav,None,1000,20,2432916,1003,21.285
E,4,2412905,sinestep5.wav,None,1000,20,2434917,336,23.285
E,4,2412905,vowelstep5.wav,None,1000,20,2436917,320,25.285
E,4,2412905,vowelstep3.wav,None,1000,20,2438917,326,27.285
E,4,2412905,sinestep1.wav,None,1000,20,2440917,328,29.285
E,4,2412905,vowelstep5.wav,None,1000,20,2442917,327,31.285
E,4,2412905,silence.wav,None,1000,20,2444917,339,33.285
E,4,2412905,silence.wav,None,1000,20,2446917,335,35.285
E,4,2412905,sinestep3.wav,None,1000,20,2448917,350,37.285
E,4,2412905,sinestep3.wav,None,1000,20,2450916,320,39.285
E,4,2412905,sinestep3.wav,None,1000,20,2452917,328,41.285
E,4,2412905,sinestep1.wav,None,1000,20,2454917,330,43.285
E,4,2412905,vowelstep1.wav,None,1000,20,2456917,338,45.285
E,4,2412905,sinestep1.wav,None,1000,20,2458917,339,47.285
E,4,2412905,vowelstep7.wav,None,1000,20,2460917,337,49.285
E,4,2412905,vowelstep5.wav,None,1000,20,2462917,338,51.285
E,4,2412905,sinestep7.wav,None,1000,20,2464917,319,53.285
E,4,2412905,sinestep1.wav,None,1000,20,2466917,327,55.285
E,4,2412905,vowelstep5.wav,None,1000,20,2468917,329,57.285
E,4,2412905,sinestep3.wav,None,1000,20,2470918,325,59.285
E,4,2412905,vowelstep1.wav,None,1000,20,2472918,337,61.285
E,4,2412905,vowelstep5.wav,None,1000,20,2474917,338,63.285
E,4,2412905,vowelstep3.wav,None,1000,20,2476917,335,65.285
E,4,2412905,sinestep1.wav,None,1000,20,2478917,325,67.285
E,4,2412905,vowelstep3.wav,None,1000,20,2480917,328,69.285
E,4,2412905,silence.wav,None,1000,20,2482917,322,71.285
E,4,2412905,vowelstep3.wav,None,1000,20,2484917,336,73.285
E,4,2412905,sinestep3_catch.wav,2,304,20,2486918,337,75.285
E,4,2412905,sinestep3.wav,None,1000,20,2488918,1027,77.285
E,4,2412905,vowelstep3.wav,None,1000,20,2490918,336,79.285
E,4,2412905,vowelstep7.wav,None,1000,20,2492918,317,81.285
E,4,2412905,silence.wav,None,1000,20,2494918,322,83.285
E,4,2412905,sinestep3.wav,None,1000,20,2496918,325,85.285
E,4,2412905,silence.wav,None,1000,20,2498917,323,87.285
E,4,2412905,sinestep1.wav,None,1000,20,2500917,338,89.285
E,4,2412905,sinestep5_catch.wav,2,460,20,2502917,338,91.285
E,4,2412905,vowelstep3.wav,None,1000,20,2504918,875,93.285
E,4,2412905,sinestep5.wav,None,1000,20,2506918,347,95.285
E,4,2412905,vowelstep7.wav,None,1000,20,2508918,325,97.285
E,4,2412905,sinestep1.wav,None,1000,20,2510918,326,99.285
E,4,2412905,sinestep5.wav,None,1000,20,2512918,322,101.285
E,4,2412905,sinestep5.wav,None,1000,20,2514918,333,103.285
E,4,2412905,vowelstep7.wav,None,1000,20,2516918,336,105.285
E,4,2412905,vowelstep3.wav,None,1000,20,2518918,335,107.285
E,4,2412905,vowelstep7.wav,None,1000,20,2520918,316,109.285
E,4,2412905,sinestep5.wav,None,1000,20,2522919,322,111.285
E,4,2412905,vowelstep3.wav,None,1000,20,2524918,325,113.285
E,4,2412905,vowelstep7.wav,None,1000,20,2526918,322,115.285
E,4,2412905,sinestep3.wav,None,1000,20,2528918,331,117.285
E,4,2412905,vowelstep7.wav,None,1000,20,2530918,334,119.285
E,4,2412905,silence.wav,None,1000,20,2532918,329,121.285
E,4,2412905,silence.wav,None,1000,20,2534918,336,123.285
E,4,2412905,sinestep7.wav,None,1000,20,2536918,323,125.285
E,4,2412905,sinestep7_catch.wav,2,461,20,2538918,326,127.285
E,4,2412905,sinestep7.wav,None,1000,20,2540919,860,129.285
E,4,2412905,silence.wav,None,1000,20,2542919,324,131.285
E,4,2412905,sinestep7_catch.wav,2,247,20,2544919,332,133.285
E,4,2412905,sinestep7.wav,None,1000,20,2546919,1080,135.285
E,4,2412905,sinestep5_catch.wav,2,348,20,2548918,340,137.285
E,4,2412905,sinestep1.wav,None,1000,20,2550918,972,139.285
E,4,2412905,sinestep1.wav,None,1000,20,2552918,344,141.285
E,4,2412905,sinestep1.wav,None,1000,20,2554918,344,143.285
E,4,2412905,sinestep3.wav,None,1000,20,2556919,332,145.285
E,4,2412905,vowelstep5.wav,None,1000,20,2558919,333,147.285
E,4,2412905,silence.wav,None,1000,20,2560919,333,149.285
E,4,2412905,sinestep3_catch.wav,2,463,20,2562919,328,151.285
E,4,2412905,silence.wav,None,1000,20,2564919,880,153.285
E,4,2412905,sinestep7.wav,None,1000,20,2566919,338,155.285
E,4,2412905,sinestep5.wav,None,1000,20,2568919,353,157.285
E,4,2412905,silence.wav,None,1000,20,2570919,323,159.285
E,4,2412905,vowelstep5.wav,None,1000,20,2572918,327,161.285
E,4,2412905,vowelstep1.wav,None,1000,20,2574919,332,163.285
E,4,2412905,vowelstep3.wav,None,1000,20,2576919,340,165.285
E,4,2412905,sinestep5.wav,None,1000,20,2578919,342,167.285
E,4,2412905,sinestep7.wav,None,1000,20,2580919,341,169.285
E,4,2412905,vowelstep1.wav,None,1000,20,2582919,339,171.285
E,4,2412905,vowelstep7.wav,None,1000,20,2584919,317,173.285
E,4,2412905,sinestep3.wav,None,1000,20,2586919,330,175.285
E,4,2412905,silence.wav,None,1000,20,2588919,329,177.285
E,4,2412905,sinestep1_catch.wav,2,268,20,2590919,331,179.285
E,4,2412905,sinestep7.wav,None,1000,20,2592920,1066,181.285
E,4,2412905,vowelstep1.wav,None,1000,20,2594920,338,183.285
E,4,2412905,sinestep5.wav,None,1000,20,2596919,333,185.285
E,4,2412905,sinestep5.wav,None,1000,20,2598919,351,187.285
E,4,2412905,vowelstep1.wav,None,1000,20,2600919,324,189.285
E,4,2412905,sinestep7.wav,None,1000,20,2602919,329,191.285
E,4,2412905,sinestep3.wav,None,1000,20,2604919,332,193.285
E,4,2412905,sinestep7.wav,None,1000,20,2606919,335,195.285
E,4,2412905,silence.wav,None,1000,20,2608919,338,197.285
E,4,2412905,vowelstep1.wav,None,1000,20,2610920,336,199.285
E,4,2412905,sinestep1.wav,None,1000,20,2612920,349,201.285
E,4,2412905,vowelstep1.wav,None,1000,20,2614920,329,203.285
E,4,2412905,vowelstep1.wav,None,1000,20,2616920,329,205.285
E,4,2412905,vowelstep1_catch.wav,2,444,20,2618920,328,207.285
E,4,2412905,vowelstep1.wav,None,1000,20,2620919,895,209.285
E,4,2412905,vowelstep1.wav,None,1000,20,2622919,340,211.285
E,4,2412905,silence.wav,None,1000,20,2624919,334,213.285
E,4,2412905,sinestep7.wav,None,1000,20,2626920,343,215.285
E,4,2412905,vowelstep7.wav,None,1000,20,2628920,323,217.285
E,4,2412905,vowelstep3_catch.wav,2,271,20,2630920,324,219.285
E,4,2412905,vowelstep5.wav,None,1000,20,2632920,1054,221.285
E,4,2412905,sinestep3.wav,None,1000,20,2634920,337,223.285
E,4,2412905,silence.wav,None,1000,20,2636920,338,225.285
E,4,2412905,sinestep1.wav,None,1000,20,2638920,339,227.285
E,4,2412905,sinestep5.wav,None,1000,20,2640920,349,229.285
E,4,2412905,sinestep5.wav,None,1000,20,2642920,316,231.285
E,4,2412905,sinestep3.wav,None,1000,20,2644920,329,233.285
E,4,2412905,sinestep5.wav,None,1000,20,2646920,327,235.285
E,4,2412905,vowelstep3.wav,None,1000,20,2648920,335,237.285
E,4,2412905,sinestep7.wav,None,1000,20,2650920,338,239.285
E,4,2412905,sinestep7.wav,None,1000,20,2652920,338,241.285
E,4,2412905,silence.wav,None,1000,20,2654920,318,243.285
E,4,2412905,sinestep3.wav,None,1000,20,2656920,324,245.285
E,4,2412905,sinestep3.wav,None,1000,20,2658920,325,247.285
E,4,2412905,vowelstep3.wav,None,1000,20,2660920,326,249.285
E,4,2412905,silence.wav,None,1000,20,2662921,338,251.285
E,4,2412905,sinestep7.wav,None,1000,20,2664921,335,253.285
E,4,2412905,silence.wav,None,1000,20,2666921,334,255.285
E,4,2412905,vowelstep7.wav,None,1000,20,2668921,333,257.285
E,4,2412905,vowelstep3.wav,None,1000,20,2670920,325,259.285
E,4,2412905,silence.wav,None,1000,20,2672920,325,261.285
E,4,2412905,vowelstep3.wav,None,1000,20,2674920,327,263.285
E,4,2412905,vowelstep1.wav,None,1000,20,2676920,324,265.285
E,4,2412905,vowelstep5.wav,None,1000,20,2678921,338,267.285
E,4,2412905,silence.wav,None,1000,20,2680921,333,269.285
E,4,2412905,vowelstep3.wav,None,1000,20,2682921,314,271.285
E,4,2412905,sinestep1.wav,None,1000,20,2684921,313,273.285
E,4,2412905,vowelstep5_catch.wav,2,487,20,2686921,325,275.285
E,4,2412905,sinestep7.wav,None,1000,20,2688921,831,277.285
E,4,2412905,sinestep7.wav,None,1000,20,2690921,326,279.285
E,4,2412905,vowelstep7.wav,None,1000,20,2692921,334,281.285
E,4,2412905,silence.wav,None,1000,20,2694920,336,283.285
E,4,2412905,sinestep5.wav,None,1000,20,2696921,334,285.285
E,4,2412905,silence.wav,None,1000,20,2698921,325,287.285
E,4,2412905,silence.wav,None,1000,20,2700921,320,289.285
E,4,2412905,vowelstep5.wav,None,1000,20,2702921,323,291.285
E,4,2412905,vowelstep5.wav,None,1000,20,2704921,325,293.285
E,4,2412905,silence.wav,None,1000,20,2706921,333,295.285
E,4,2412905,vowelstep5.wav,None,1000,20,2708921,333,297.285
E,4,2412905,vowelstep7_catch.wav,2,382,20,2710921,334,299.285
E,4,2412905,vowelstep7_catch.wav,2,294,20,2712921,929,301.285
E,4,2412905,vowelstep5.wav,None,1000,20,2714922,1028,303.285
E,4,2412905,sinestep1.wav,None,1000,20,2716922,323,305.285
E,4,2412905,vowelstep3.wav,None,1000,20,2718921,329,307.285
E,4,2412905,vowelstep5_catch.wav,2,423,20,2720921,332,309.285
E,4,2412905,vowelstep7.wav,None,1000,20,2722921,906,311.285
E,4,2412905,vowelstep5.wav,None,1000,20,2724921,324,313.285
E,4,2412905,vowelstep7.wav,None,1000,20,2726921,341,315.285
E,4,2412905,vowelstep1.wav,None,1000,20,2728921,318,317.285
E,4,2412905,vowelstep3_catch.wav,2,248,20,2730921,323,319.285
G,5,2788528,vowelstep3.wav,None,1000,20,2788539,0,1.285
G,5,2788528,vowelstep3.wav,None,1000,20,2790539,331,3.285
G,5,2788528,vowelstep7.wav,None,1000,20,2792539,340,5.285
G,5,2788528,vowelstep3.wav,None,1000,20,2794539,345,7.285
G,5,2788528,sinestep5.wav,None,1000,20,2796539,317,9.285
G,5,2788528,sinestep1_catch.wav,2,321,20,2798539,330,11.285
G,5,2788528,silence.wav,None,1000,20,2800539,1005,13.285
G,5,2788528,silence.wav,None,1000,20,2802540,342,15.285
G,5,2788528,vowelstep7.wav,None,1000,20,2804540,339,17.285
G,5,2788528,vowelstep1.wav,None,1000,20,2806540,340,19.285
G,5,2788528,silence.wav,None,1000,20,2808539,347,21.285
G,5,2788528,sinestep1.wav,None,1000,20,2810539,329,23.285
G,5,2788528,vowelstep7.wav,None,1000,20,2812539,332,25.285
G,5,2788528,sinestep5.wav,None,1000,20,2814539,327,27.285
G,5,2788528,sinestep5.wav,None,1000,20,2816539,326,29.285
G,5,2788528,sinestep3.wav,None,1000,20,2818539,337,31.285
G,5,2788528,vowelstep3.wav,None,1000,20,2820540,340,33.285
G,5,2788528,silence.wav,None,1000,20,2822540,351,35.285
G,5,2788528,vowelstep1.wav,None,1000,20,2824540,321,37.285
G,5,2788528,sinestep7.wav,None,1000,20,2826540,330,39.285
G,5,2788528,vowelstep5.wav,None,1000,20,2828540,330,41.285
G,5,2788528,vowelstep3.wav,None,1000,20,2830540,340,43.285
G,5,2788528,sinestep1.wav,None,1000,20,2832539,336,45.285
G,5,2788528,sinestep7.wav,None,1000,20,2834539,340,47.285
G,5,2788528,sinestep1.wav,None,1000,20,2836540,346,49.285
G,5,2788528,sinestep5.wav,None,1000,20,2838540,325,51.285
G,5,2788528,vowelstep1.wav,None,1000,20,2840540,329,53.285
G,5,2788528,silence.wav,None,1000,20,2842540,328,55.285
G,5,2788528,sinestep5.wav,None,1000,20,2844540,336,57.285
G,5,2788528,vowelstep1.wav,None,1000,20,2846540,335,59.285
G,5,2788528,vowelstep3.wav,None,1000,20,2848540,339,61.285
G,5,2788528,sinestep3.wav,None,1000,20,2850540,344,63.285
G,5,2788528,sinestep1.wav,None,1000,20,2852540,347,65.285
G,5,2788528,vowelstep5.wav,None,1000,20,2854541,327,67.285
G,5,2788528,vowelstep3.wav,None,1000,20,2856541,322,69.285
G,5,2788528,vowelstep5.wav,None,1000,20,2858540,329,71.285
G,5,2788528,vowelstep7.wav,None,1000,20,2860540,336,73.285
G,5,2788528,vowelstep5.wav,None,1000,20,2862540,338,75.285
G,5,2788528,vowelstep5.wav,None,1000,20,2864540,336,77.285
G,5,2788528,sinestep3.wav,None,1000,20,2866540,319,79.285
G,5,2788528,sinestep3_catch.wav,2,362,20,2868540,328,81.285
G,5,2788528,sinestep5_catch.wav,2,210,20,2870540,963,83.285
G,5,2788528,sinestep7.wav,None,1000,20,2872541,1118,85.285
G,5,2788528,sinestep7_catch.wav,2,281,20,2874541,335,87.285
G,5,2788528,sinestep7.wav,None,1000,20,2876541,1049,89.285
G,5,2788528,vowelstep1.wav,None,1000,20,2878541,335,91.285
G,5,2788528,vowelstep7.wav,None,1000,20,2880541,325,93.285
G,5,2788528,vowelstep3.wav,None,1000,20,2882540,326,95.285
G,5,2788528,sinestep3.wav,None,1000,20,2884540,325,97.285
G,5,2788528,sinestep1.wav,None,1000,20,2886540,326,99.285
G,5,2788528,sinestep1.wav,None,1000,20,2888540,330,101.285
G,5,2788528,sinestep5.wav,None,1000,20,2890541,332,103.285
G,5,2788528,vowelstep7.wav,None,1000,20,2892541,325,105.285
G,5,2788528,silence.wav,None,1000,20,2894541,318,107.285
G,5,2788528,sinestep3.wav,None,1000,20,2896541,319,109.285
G,5,2788528,vowelstep1.wav,None,1000,20,2898541,323,111.285
G,5,2788528,sinestep3.wav,None,1000,20,2900541,323,113.285
G,5,2788528,sinestep3.wav,None,1000,20,2902541,333,115.285
G,5,2788528,sinestep7.wav,None,1000,20,2904541,334,117.285
G,5,2788528,silence.wav,None,1000,20,2906541,327,119.285
G,5,2788528,vowelstep5.wav,None,1000,20,2908541,343,121.285
G,5,2788528,sinestep1_catch.wav,2,99,20,2910541,317,123.285
G,5,2788528,silence.wav,None,1000,20,2912541,1223,125.285
G,5,2788528,sinestep5.wav,None,1000,20,2914541,323,127.285
G,5,2788528,sinestep7.wav,None,1000,20,2916541,332,129.285
G,5,2788528,sinestep3.wav,None,1000,20,2918541,332,131.285
G,5,2788528,sinestep3.wav,None,1000,20,2920541,331,133.285
G,5,2788528,vowelstep5.wav,None,1000,20,2922541,338,135.285
G,5,2788528,sinestep3.wav,None,1000,20,2924542,322,137.285
G,5,2788528,sinestep3_catch.wav,2,306,20,2926542,321,139.285
G,5,2788528,vowelstep1.wav,None,1000,20,2928542,1014,141.285
G,5,2788528,vowelstep1.wav,None,1000,20,2930541,332,143.285
G,5,2788528,sinestep5.wav,None,1000,20,2932541,328,145.285
G,5,2788528,silence.wav,None,1000,20,2934541,332,147.285
G,5,2788528,sinestep3.wav,None,1000,20,2936541,342,149.285
G,5,2788528,silence.wav,None,1000,20,2938541,317,151.285
G,5,2788528,vowelstep3.wav,None,1000,20,2940541,323,153.285
G,5,2788528,sinestep5.wav,None,1000,20,2942542,321,155.285
G,5,2788528,vowelstep7.wav,None,1000,20,2944542,327,157.285
G,5,2788528,silence.wav,None,1000,20,2946542,330,159.285
G,5,2788528,sinestep5_catch.wav,2,360,20,2948542,326,161.285
G,5,2788528,vowelstep5.wav,None,1000,20,2950542,970,163.285
G,5,2788528,silence.wav,None,1000,20,2952542,334,165.285
G,5,2788528,vowelstep7.wav,None,1000,20,2954541,342,167.285
G,5,2788528,vowelstep1.wav,None,1000,20,2956541,320,169.285
G,5,2788528,vowelstep1.wav,None,1000,20,2958541,329,171.285
G,5,2788528,vowelstep1.wav,None,1000,20,2960542,332,173.285
G,5,2788528,sinestep5.wav,None,1000,20,2962542,331,175.285
G,5,2788528,vowelstep3.wav,None,1000,20,2964542,338,177.285
G,5,2788528,sinestep1.wav,None,1000,20,2966542,338,179.285
G,5,2788528,vowelstep1.wav,None,1000,20,2968542,339,181.285
G,5,2788528,sinestep1.wav,None,1000,20,2970542,349,183.285
G,5,2788528,sinestep7.wav,None,1000,20,2972542,327,185.285
G,5,2788528,sinestep7.wav,None,1000,20,2974542,325,187.285
G,5,2788528,sinestep3.wav,None,1000,20,2976543,329,189.285
G,5,2788528,sinestep5.wav,None,1000,20,2978542,325,191.285
G,5,2788528,silence.wav,None,1000,20,2980542,341,193.285
G,5,2788528,sinestep7_catch.wav,2,285,20,2982542,332,195.285
G,5,2788528,vowelstep7_catch.wav,2,367,20,2984542,1065,197.285
G,5,2788528,sinestep7.wav,None,1000,20,2986542,947,199.285
G,5,2788528,silence.wav,None,1000,20,2988542,328,201.285
G,5,2788528,sinestep7.wav,None,1000,20,2990542,327,203.285
G,5,2788528,sinestep3.wav,None,1000,20,2992542,335,205.285
G,5,2788528,vowelstep7.wav,None,1000,20,2994543,337,207.285
G,5,2788528,sinestep1.wav,None,1000,20,2996543,334,209.285
G,5,2788528,silence.wav,None,1000,20,2998543,348,211.285
G,5,2788528,silence.wav,None,1000,20,3000543,328,213.285
G,5,2788528,vowelstep7.wav,None,1000,20,3002542,328,215.285
G,5,2788528,vowelstep5.wav,None,1000,20,3004542,326,217.285
G,5,2788528,sinestep7.wav,None,1000,20,3006542,328,219.285
G,5,2788528,vowelstep5.wav,None,1000,20,3008542,339,221.285
G,5,2788528,vowelstep5_catch.wav,2,294,20,3010542,339,223.285
G,5,2788528,vowelstep7.wav,None,1000,20,3012543,1043,225.285
G,5,2788528,silence.wav,None,1000,20,3014543,318,227.285
G,5,2788528,silence.wav,None,1000,20,3016543,328,229.285
G,5,2788528,sinestep1.wav,None,1000,20,3018543,324,231.285
G,5,2788528,silence.wav,None,1000,20,3020543,321,233.285
G,5,2788528,vowelstep7.wav,None,1000,20,3022543,334,235.285
G,5,2788528,vowelstep5.wav,None,1000,20,3024543,333,237.285
G,5,2788528,vowelstep3.wav,None,1000,20,3026543,347,239.285
G,5,2788528,vowelstep3_catch.wav,2,397,20,3028542,317,241.285
G,5,2788528,sinestep1.wav,None,1000,20,3030543,928,243.285
G,5,2788528,silence.wav,None,1000,20,3032543,322,245.285
G,5,2788528,sinestep7.wav,None,1000,20,3034543,335,247.285
G,5,2788528,sinestep1.wav,None,1000,20,3036543,335,249.285
G,5,2788528,sinestep3.wav,None,1000,20,3038543,335,251.285
G,5,2788528,vowelstep3.wav,None,1000,20,3040543,330,253.285
G,5,2788528,vowelstep1_catch.wav,2,390,20,3042543,343,255.285
G,5,2788528,sinestep7.wav,None,1000,20,3044543,931,257.285
G,5,2788528,silence.wav,None,1000,20,3046544,324,259.285
G,5,2788528,sinestep5.wav,None,1000,20,3048544,321,261.285
G,5,2788528,sinestep5.wav,None,1000,20,3050544,336,263.285
G,5,2788528,vowelstep5.wav,None,1000,20,3052543,327,265.285
G,5,2788528,sinestep5.wav,None,1000,20,3054543,335,267.285
G,5,2788528,sinestep7.wav,None,1000,20,3056543,343,269.285
G,5,2788528,silence.wav,None,1000,20,3058543,325,271.285
G,5,2788528,vowelstep7_catch.wav,1,287,20,3060543,325,273.285
G,5,2788528,vowelstep5.wav,None,1000,20,3062543,1037,275.285
G,5,2788528,silence.wav,None,1000,20,3064544,335,277.285
G,5,2788528,sinestep3.wav,None,1000,20,3066544,334,279.285
G,5,2788528,vowelstep5.wav,None,1000,20,3068544,334,281.285
G,5,2788528,silence.wav,None,1000,20,3070544,344,283.285
G,5,2788528,vowelstep1.wav,None,1000,20,3072544,324,285.285
G,5,2788528,sinestep1.wav,None,1000,20,3074544,323,287.285
G,5,2788528,vowelstep3.wav,None,1000,20,3076543,324,289.285
G,5,2788528,vowelstep7.wav,None,1000,20,3078543,333,291.285
G,5,2788528,vowelstep7.wav,None,1000,20,3080543,333,293.285
G,5,2788528,sinestep1.wav,None,1000,20,3082544,331,295.285
G,5,2788528,vowelstep5.wav,None,1000,20,3084544,339,297.285
G,5,2788528,silence.wav,None,1000,20,3086544,323,299.285
G,5,2788528,sinestep1.wav,None,1000,20,3088544,322,301.285
G,5,2788528,vowelstep7.wav,None,1000,20,3090544,317,303.285
G,5,2788528,vowelstep5_catch.wav,1,378,20,3092544,317,305.285
G,5,2788528,vowelstep3.wav,None,1000,20,3094544,955,307.285
G,5,2788528,vowelstep3_catch.wav,1,285,20,3096544,331,309.285
G,5,2788528,sinestep7.wav,None,1000,20,3098545,1053,311.285
G,5,2788528,sinestep5.wav,None,1000,20,3100544,313,313.285
G,5,2788528,vowelstep1.wav,None,1000,20,3102544,321,315.285
G,5,2788528,vowelstep3.wav,None,1000,20,3104544,322,317.285
G,5,2788528,vowelstep1.wav,None,1000,20,3106544,332,319.285
H,6,3165556,sinestep3.wav,None,1000,20,3165561,0,1.285
H,6,3165556,sinestep7.wav,None,1000,20,3167561,336,3.285
H,6,3165556,sinestep3.wav,None,1000,20,3169562,338,5.285
H,6,3165556,vowelstep3.wav,None,1000,20,3171562,341,7.285
H,6,3165556,vowelstep1.wav,None,1000,20,3173562,344,9.285
H,6,3165556,sinestep7.wav,None,1000,20,3175562,346,11.285
H,6,3165556,vowelstep3.wav,None,1000,20,3177562,346,13.285
H,6,3165556,silence.wav,None,1000,20,3179562,334,15.285
H,6,3165556,vowelstep1.wav,None,1000,20,3181562,337,17.285
H,6,3165556,sinestep5.wav,None,1000,20,3183562,330,19.285
H,6,3165556,sinestep7.wav,None,1000,20,3185562,336,21.285
H,6,3165556,vowelstep7.wav,None,1000,20,3187563,345,23.285
H,6,3165556,vowelstep1_catch.wav,1,320,20,3189562,346,25.285
H,6,3165556,sinestep5.wav,None,1000,20,3191562,1020,27.285
H,6,3165556,vowelstep5.wav,None,1000,20,3193562,325,29.285
H,6,3165556,silence.wav,None,1000,20,3195562,332,31.285
H,6,3165556,vowelstep3_catch.wav,1,208,20,3197562,334,33.285
H,6,3165556,sinestep7.wav,None,1000,20,3199562,1136,35.285
H,6,3165556,sinestep5.wav,None,1000,20,3201562,345,37.285
H,6,3165556,silence.wav,None,1000,20,3203563,341,39.285
H,6,3165556,vowelstep3.wav,None,1000,20,3205563,341,41.285
H,6,3165556,vowelstep1.wav,None,1000,20,3207563,333,43.285
H,6,3165556,vowelstep1.wav,None,1000,20,3209563,334,45.285
H,6,3165556,vowelstep3.wav,None,1000,20,3211563,333,47.285
H,6,3165556,sinestep3.wav,None,1000,20,3213562,333,49.285
H,6,3165556,vowelstep1.wav,None,1000,20,3215562,338,51.285
H,6,3165556,sinestep7.wav,None,1000,20,3217562,342,53.285
H,6,3165556,vowelstep7.wav,None,1000,20,3219562,340,55.285
H,6,3165556,vowelstep5_catch.wav,1,241,20,3221563,355,57.285
H,6,3165556,vowelstep5.wav,None,1000,20,3223563,1086,59.285
H,6,3165556,vowelstep3.wav,None,1000,20,3225563,331,61.285
H,6,3165556,vowelstep7_catch.wav,1,354,20,3227563,333,63.285
H,6,3165556,sinestep3.wav,None,1000,20,3229563,984,65.285
H,6,3165556,sinestep1.wav,None,1000,20,3231563,337,67.285
H,6,3165556,sinestep7.wav,None,1000,20,3233563,341,69.285
H,6,3165556,silence.wav,None,1000,20,3235563,321,71.285
H,6,3165556,vowelstep1.wav,None,1000,20,3237563,332,73.285
H,6,3165556,vowelstep7.wav,None,1000,20,3239563,328,75.285
H,6,3165556,sinestep7.wav,None,1000,20,3241563,332,77.285
H,6,3165556,sinestep1.wav,None,1000,20,3243563,340,79.285
H,6,3165556,sinestep7.wav,None,1000,20,3245563,336,81.285
H,6,3165556,sinestep1.wav,None,1000,20,3247563,337,83.285
H,6,3165556,vowelstep5.wav,None,1000,20,3249563,349,85.285
H,6,3165556,sinestep3.wav,None,1000,20,3251563,331,87.285
H,6,3165556,vowelstep5.wav,None,1000,20,3253563,327,89.285
H,6,3165556,silence.wav,None,1000,20,3255563,327,91.285
H,6,3165556,silence.wav,None,1000,20,3257564,326,93.285
H,6,3165556,sinestep5.wav,None,1000,20,3259564,336,95.285
H,6,3165556,sinestep3.wav,None,1000,20,3261564,335,97.285
H,6,3165556,sinestep7.wav,None,1000,20,3263563,317,99.285
H,6,3165556,sinestep7_catch.wav,1,264,20,3265563,321,101.285
H,6,3165556,silence.wav,None,1000,20,3267563,1062,103.285
H,6,3165556,sinestep3.wav,None,1000,20,3269563,330,105.285
H,6,3165556,silence.wav,None,1000,20,3271563,337,107.285
H,6,3165556,vowelstep1.wav,None,1000,20,3273564,340,109.285
H,6,3165556,vowelstep7.wav,None,1000,20,3275564,339,111.285
H,6,3165556,sinestep5.wav,None,1000,20,3277564,343,113.285
H,6,3165556,silence.wav,None,1000,20,3279564,327,115.285
H,6,3165556,vowelstep7.wav,None,1000,20,3281564,329,117.285
H,6,3165556,vowelstep3.wav,None,1000,20,3283564,328,119.285
H,6,3165556,sinestep5.wav,None,1000,20,3285564,339,121.285
H,6,3165556,sinestep1.wav,None,1000,20,3287563,341,123.285
H,6,3165556,vowelstep3.wav,None,1000,20,3289563,339,125.285
H,6,3165556,vowelstep3.wav,None,1000,20,3291564,349,127.285
H,6,3165556,vowelstep5.wav,None,1000,20,3293564,318,129.285
H,6,3165556,vowelstep1.wav,None,1000,20,3295564,328,131.285
H,6,3165556,vowelstep7.wav,None,1000,20,3297564,328,133.285
H,6,3165556,vowelstep3.wav,None,1000,20,3299564,338,135.285
H,6,3165556,vowelstep5.wav,None,1000,20,3301564,338,137.285
H,6,3165556,vowelstep5.wav,None,1000,20,3303564,338,139.285
H,6,3165556,sinestep7.wav,None,1000,20,3305564,348,141.285
H,6,3165556,vowelstep1.wav,None,1000,20,3307564,318,143.285
H,6,3165556,sinestep3.wav,None,1000,20,3309565,328,145.285
H,6,3165556,sinestep1.wav,None,1000,20,3311565,323,147.285
H,6,3165556,vowelstep1.wav,None,1000,20,3313564,334,149.285
H,6,3165556,sinestep5_catch.wav,1,266,20,3315564,337,151.285
H,6,3165556,sinestep7.wav,None,1000,20,3317564,1069,153.285
H,6,3165556,sinestep3_catch.wav,1,425,20,3319564,338,155.285
H,6,3165556,sinestep7.wav,None,1000,20,3321564,889,157.285
H,6,3165556,sinestep5.wav,None,1000,20,3323564,327,159.285
H,6,3165556,silence.wav,None,1000,20,3325564,327,161.285
H,6,3165556,sinestep1_catch.wav,1,347,20,3327565,324,163.285
H,6,3165556,vowelstep7.wav,None,1000,20,3329565,986,165.285
H,6,3165556,vowelstep7.wav,None,1000,20,3331565,327,167.285
H,6,3165556,sinestep7.wav,None,1000,20,3333565,346,169.285
H,6,3165556,sinestep3.wav,None,1000,20,3335564,310,171.285
H,6,3165556,sinestep5.wav,None,1000,20,3337564,327,173.285
H,6,3165556,vowelstep1_catch.wav,1,335,20,3339564,343,175.285
H,6,3165556,vowelstep1.wav,None,1000,20,3341564,1020,177.285
H,6,3165556,sinestep3.wav,None,1000,20,3343565,334,179.285
H,6,3165556,sinestep3.wav,None,1000,20,3345565,334,181.285
H,6,3165556,vowelstep5.wav,None,1000,20,3347565,335,183.285
H,6,3165556,sinestep1.wav,None,1000,20,3349565,346,185.285
H,6,3165556,sinestep1.wav,None,1000,20,3351565,340,187.285
H,6,3165556,vowelstep7.wav,None,1000,20,3353565,344,189.285
H,6,3165556,sinestep1.wav,None,1000,20,3355565,321,191.285
H,6,3165556,sinestep5.wav,None,1000,20,3357565,329,193.285
H,6,3165556,vowelstep3_catch.wav,1,293,20,3359565,334,195.285
H,6,3165556,sinestep1.wav,None,1000,20,3361565,1040,197.285
H,6,3165556,silence.wav,None,1000,20,3363565,343,199.285
H,6,3165556,vowelstep1.wav,None,1000,20,3365565,343,201.285
H,6,3165556,vowelstep5_catch.wav,1,292,20,3367565,340,203.285
H,6,3165556,sinestep5.wav,None,1000,20,3369565,1059,205.285
H,6,3165556,sinestep1.wav,None,1000,20,3371565,331,207.285
H,6,3165556,silence.wav,None,1000,20,3373565,333,209.285
H,6,3165556,sinestep3.wav,None,1000,20,3375565,333,211.285
H,6,3165556,silence.wav,None,1000,20,3377565,341,213.285
H,6,3165556,vowelstep7_catch.wav,1,476,20,3379566,339,215.285
H,6,3165556,vowelstep5.wav,None,1000,20,3381566,866,217.285
H,6,3165556,sinestep7.wav,None,1000,20,3383566,351,219.285
H,6,3165556,silence.wav,None,1000,20,3385565,333,221.285
H,6,3165556,sinestep1.wav,None,1000,20,3387565,331,223.285
H,6,3165556,silence.wav,None,1000,20,3389565,331,225.285
H,6,3165556,silence.wav,None,1000,20,3391565,333,227.285
H,6,3165556,silence.wav,None,1000,20,3393565,337,229.285
H,6,3165556,silence.wav,None,1000,20,3395565,339,231.285
H,6,3165556,sinestep5.wav,None,1000,20,3397566,315,233.285
H,6,3165556,silence.wav,None,1000,20,3399566,322,235.285
H,6,3165556,vowelstep3.wav,None,1000,20,3401566,332,237.285
H,6,3165556,silence.wav,None,1000,20,3403566,329,239.285
H,6,3165556,silence.wav,None,1000,20,3405566,341,241.285
H,6,3165556,vowelstep1_catch.wav,1,447,20,3407566,340,243.285
H,6,3165556,vowelstep5.wav,None,1000,20,3409565,894,245.285
H,6,3165556,vowelstep7.wav,None,1000,20,3411565,341,247.285
H,6,3165556,vowelstep3_catch.wav,1,456,20,3413566,331,249.285
H,6,3165556,vowelstep1.wav,None,1000,20,3415566,875,251.285
H,6,3165556,sinestep3.wav,None,1000,20,3417566,331,253.285
H,6,3165556,vowelstep5_catch.wav,1,287,20,3419566,328,255.285
H,6,3165556,vowelstep5.wav,None,1000,20,3421566,1050,257.285
H,6,3165556,silence.wav,None,1000,20,3423566,341,259.285
H,6,3165556,vowelstep7.wav,None,1000,20,3425566,346,261.285
H,6,3165556,sinestep5.wav,None,1000,20,3427566,327,263.285
H,6,3165556,vowelstep5.wav,None,1000,20,3429566,330,265.285
H,6,3165556,vowelstep7.wav,None,1000,20,3431567,331,267.285
H,6,3165556,vowelstep3.wav,None,1000,20,3433566,329,269.285
H,6,3165556,vowelstep3.wav,None,1000,20,3435566,339,271.285
H,6,3165556,silence.wav,None,1000,20,3437566,339,273.285
H,6,3165556,vowelstep3.wav,None,1000,20,3439566,334,275.285
H,6,3165556,sinestep1.wav,None,1000,20,3441566,350,277.285
H,6,3165556,silence.wav,None,1000,20,3443566,328,279.285
H,6,3165556,sinestep1.wav,None,1000,20,3445566,329,281.285
H,6,3165556,vowelstep3.wav,None,1000,20,3447566,329,283.285
H,6,3165556,silence.wav,None,1000,20,3449567,338,285.285
H,6,3165556,vowelstep5.wav,None,1000,20,3451567,337,287.285
H,6,3165556,vowelstep5.wav,None,1000,20,3453567,349,289.285
H,6,3165556,vowelstep1.wav,None,1000,20,3455567,348,291.285
H,6,3165556,sinestep5.wav,None,1000,20,3457566,326,293.285
H,6,3165556,vowelstep7.wav,None,1000,20,3459566,328,295.285
H,6,3165556,vowelstep1.wav,None,1000,20,3461566,329,297.285
H,6,3165556,vowelstep7.wav,None,1000,20,3463566,335,299.285
H,6,3165556,vowelstep3.wav,None,1000,20,3465566,336,301.285
H,6,3165556,sinestep1.wav,None,1000,20,3467567,332,303.285
H,6,3165556,sinestep5.wav,None,1000,20,3469567,347,305.285
H,6,3165556,vowelstep5.wav,None,1000,20,3471567,325,307.285
H,6,3165556,sinestep3.wav,None,1000,20,3473567,321,309.285
H,6,3165556,vowelstep7.wav,None,1000,20,3475567,326,311.285
H,6,3165556,sinestep7.wav,None,1000,20,3477567,336,313.285
H,6,3165556,sinestep5.wav,None,1000,20,3479567,336,315.285
H,6,3165556,sinestep3.wav,None,1000,20,3481566,336,317.285
H,6,3165556,sinestep1.wav,None,1000,20,3483567,345,319.285
D,7,3547440,sinestep5.wav,None,1000,20,3547451,0,1.285
D,7,3547440,vowelstep1_catch.wav,1,225,20,3549451,335,3.285
D,7,3547440,sinestep7.wav,None,1000,20,3551451,1110,5.285
D,7,3547440,vowelstep3.wav,None,1000,20,3553452,327,7.285
D,7,3547440,vowelstep3_catch.wav,1,120,20,3555452,336,9.285
D,7,3547440,vowelstep5_catch.wav,1,223,20,3557452,1199,11.285
D,7,3547440,sinestep7.wav,None,1000,20,3559452,1098,13.285
D,7,3547440,silence.wav,None,1000,20,3561452,327,15.285
D,7,3547440,vowelstep7_catch.wav,1,224,20,3563451,325,17.285
D,7,3547440,vowelstep7.wav,None,1000,20,3565451,1107,19.285
D,7,3547440,vowelstep3.wav,None,1000,20,3567451,334,21.285
D,7,3547440,vowelstep7_catch.wav,1,146,20,3569451,335,23.285
D,7,3547440,vowelstep5.wav,None,1000,20,3571452,1191,25.285
D,7,3547440,sinestep7.wav,None,1000,20,3573452,325,27.285
D,7,3547440,silence.wav,None,1000,20,3575452,324,29.285
D,7,3547440,vowelstep1.wav,None,1000,20,3577452,326,31.285
D,7,3547440,vowelstep1.wav,None,1000,20,3579452,335,33.285
D,7,3547440,vowelstep7.wav,None,1000,20,3581452,337,35.285
D,7,3547440,vowelstep3.wav,None,1000,20,3583452,335,37.285
D,7,3547440,sinestep3.wav,None,1000,20,3585452,312,39.285
D,7,3547440,sinestep1.wav,None,1000,20,3587452,326,41.285
D,7,3547440,vowelstep1.wav,None,1000,20,3589452,324,43.285
D,7,3547440,vowelstep1.wav,None,1000,20,3591452,323,45.285
D,7,3547440,sinestep7.wav,None,1000,20,3593452,331,47.285
D,7,3547440,sinestep3.wav,None,1000,20,3595452,331,49.285
D,7,3547440,vowelstep5_catch.wav,1,194,20,3597452,333,51.285
D,7,3547440,sinestep7.wav,None,1000,20,3599452,1144,53.285
D,7,3547440,vowelstep5.wav,None,1000,20,3601452,319,55.285
D,7,3547440,sinestep3.wav,None,1000,20,3603452,322,57.285
D,7,3547440,sinestep7.wav,None,1000,20,3605452,324,59.285
D,7,3547440,vowelstep3.wav,None,1000,20,3607453,324,61.285
D,7,3547440,vowelstep3.wav,None,1000,20,3609453,335,63.285
D,7,3547440,vowelstep3_catch.wav,1,207,20,3611452,332,65.285
D,7,3547440,silence.wav,None,1000,20,3613452,1136,67.285
D,7,3547440,vowelstep7.wav,None,1000,20,3615452,313,69.285
D,7,3547440,silence.wav,None,1000,20,3617452,320,71.285
D,7,3547440,sinestep1.wav,None,1000,20,3619452,324,73.285
D,7,3547440,vowelstep5.wav,None,1000,20,3621452,332,75.285
D,7,3547440,vowelstep1.wav,None,1000,20,3623453,330,77.285
D,7,3547440,sinestep7.wav,None,1000,20,3625453,332,79.285
D,7,3547440,vowelstep1.wav,None,1000,20,3627453,331,81.285
D,7,3547440,sinestep7.wav,None,1000,20,3629453,322,83.285
D,7,3547440,vowelstep7.wav,None,1000,20,3631453,315,85.285
D,7,3547440,vowelstep5.wav,None,1000,20,3633453,322,87.285
D,7,3547440,vowelstep1.wav,None,1000,20,3635453,330,89.285
D,7,3547440,sinestep5.wav,None,1000,20,3637452,334,91.285
D,7,3547440,sinestep5.wav,None,1000,20,3639452,333,93.285
D,7,3547440,vowelstep3.wav,None,1000,20,3641453,342,95.285
D,7,3547440,silence.wav,None,1000,20,3643453,307,97.285
D,7,3547440,sinestep1.wav,None,1000,20,3645453,322,99.285
D,7,3547440,sinestep1.wav,None,1000,20,3647453,322,101.285
D,7,3547440,sinestep3.wav,None,1000,20,3649453,322,103.285
D,7,3547440,vowelstep1.wav,None,1000,20,3651453,326,105.285
D,7,3547440,sinestep7.wav,None,1000,20,3653453,332,107.285
D,7,3547440,vowelstep3.wav,None,1000,20,3655453,331,109.285
D,7,3547440,silence.wav,None,1000,20,3657453,311,111.285
D,7,3547440,vowelstep5.wav,None,1000,20,3659454,321,113.285
D,7,3547440,vowelstep1.wav,None,1000,20,3661453,319,115.285
D,7,3547440,vowelstep1_catch.wav,1,353,20,3663453,346,117.285
D,7,3547440,vowelstep7.wav,None,1000,20,3665453,975,119.285
D,7,3547440,sinestep5.wav,None,1000,20,3667453,328,121.285
D,7,3547440,vowelstep7.wav,None,1000,20,3669453,331,123.285
D,7,3547440,sinestep1.wav,None,1000,20,3671453,336,125.285
D,7,3547440,sinestep1.wav,None,1000,20,3673453,320,127.285
D,7,3547440,vowelstep3.wav,None,1000,20,3675453,333,129.285
D,7,3547440,sinestep1.wav,None,1000,20,3677454,314,131.285
D,7,3547440,silence.wav,None,1000,20,3679454,322,133.285
D,7,3547440,sinestep3.wav,None,1000,20,3681454,324,135.285
D,7,3547440,silence.wav,None,1000,20,3683454,324,137.285
D,7,3547440,vowelstep3.wav,None,1000,20,3685453,311,139.285
D,7,3547440,vowelstep5.wav,None,1000,20,3687453,338,141.285
D,7,3547440,silence.wav,None,1000,20,3689453,338,143.285
D,7,3547440,sinestep5.wav,None,1000,20,3691453,349,145.285
D,7,3547440,sinestep5.wav,None,1000,20,3693454,328,147.285
D,7,3547440,sinestep1.wav,None,1000,20,3695454,328,149.285
D,7,3547440,vowelstep5.wav,None,1000,20,3697454,325,151.285
D,7,3547440,vowelstep5.wav,None,1000,20,3699454,336,153.285
D,7,3547440,sinestep1_catch.wav,1,185,20,3701454,337,155.285
D,7,3547440,sinestep5.wav,None,1000,20,3703454,1150,157.285
D,7,3547440,vowelstep3.wav,None,1000,20,3705454,346,159.285
D,7,3547440,vowelstep7.wav,None,1000,20,3707454,328,161.285
D,7,3547440,vowelstep3.wav,None,1000,20,3709453,327,163.285
D,7,3547440,sinestep3.wav,None,1000,20,3711454,328,165.285
D,7,3547440,sinestep1.wav,None,1000,20,3713454,334,167.285
D,7,3547440,silence.wav,None,1000,20,3715454,336,169.285
D,7,3547440,sinestep1.wav,None,1000,20,3717454,335,171.285
D,7,3547440,vowelstep1.wav,None,1000,20,3719454,317,173.285
D,7,3547440,vowelstep3.wav,None,1000,20,3721454,328,175.285
D,7,3547440,silence.wav,None,1000,20,3723454,327,177.285
D,7,3547440,sinestep7.wav,None,1000,20,3725454,326,179.285
D,7,3547440,silence.wav,None,1000,20,3727454,335,181.285
D,7,3547440,vowelstep7.wav,None,1000,20,3729455,335,183.285
D,7,3547440,sinestep3.wav,None,1000,20,3731455,336,185.285
D,7,3547440,vowelstep1.wav,None,1000,20,3733454,345,187.285
D,7,3547440,sinestep7.wav,None,1000,20,3735454,320,189.285
D,7,3547440,silence.wav,None,1000,20,3737454,326,191.285
D,7,3547440,sinestep1.wav,None,1000,20,3739454,326,193.285
D,7,3547440,sinestep3.wav,None,1000,20,3741454,321,195.285
D,7,3547440,sinestep5.wav,None,1000,20,3743454,336,197.285
D,7,3547440,vowelstep3.wav,None,1000,20,3745455,333,199.285
D,7,3547440,sinestep5.wav,None,1000,20,3747455,334,201.285
D,7,3547440,sinestep5.wav,None,1000,20,3749455,309,203.285
D,7,3547440,sinestep3.wav,None,1000,20,3751455,321,205.285
D,7,3547440,sinestep3.wav,None,1000,20,3753455,323,207.285
D,7,3547440,sinestep5.wav,None,1000,20,3755455,325,209.285
D,7,3547440,sinestep3_catch.wav,None,1000,20,3757455,335,211.285
D,7,3547440,vowelstep7.wav,None,1000,20,3759454,331,213.285
D,7,3547440,sinestep1.wav,None,1000,20,3761454,335,215.285
D,7,3547440,sinestep7.wav,None,1000,20,3763455,319,217.285
D,7,3547440,vowelstep1.wav,None,1000,20,3765455,325,219.285
D,7,3547440,sinestep5.wav,None,1000,20,3767455,323,221.285
D,7,3547440,silence.wav,None,1000,20,3769455,319,223.285
D,7,3547440,sinestep5_catch.wav,1,70,20,3771455,333,225.285
D,7,3547440,sinestep5.wav,None,1000,20,3773455,1256,227.285
D,7,3547440,silence.wav,None,1000,20,3775455,343,229.285
D,7,3547440,vowelstep7.wav,None,1000,20,3777455,321,231.285
D,7,3547440,sinestep3.wav,None,1000,20,3779455,322,233.285
D,7,3547440,vowelstep5.wav,None,1000,20,3781456,324,235.285
D,7,3547440,vowelstep7.wav,None,1000,20,3783455,323,237.285
D,7,3547440,vowelstep5.wav,None,1000,20,3785455,329,239.285
D,7,3547440,silence.wav,None,1000,20,3787455,333,241.285
D,7,3547440,silence.wav,None,1000,20,3789455,330,243.285
D,7,3547440,silence.wav,None,1000,20,3791455,338,245.285
D,7,3547440,sinestep7.wav,None,1000,20,3793455,322,247.285
D,7,3547440,sinestep5.wav,None,1000,20,3795455,318,249.285
D,7,3547440,sinestep7_catch.wav,1,286,20,3797455,323,251.285
D,7,3547440,vowelstep1.wav,None,1000,20,3799456,1042,253.285
D,7,3547440,vowelstep1.wav,None,1000,20,3801456,330,255.285
D,7,3547440,vowelstep3.wav,None,1000,20,3803456,331,257.285
D,7,3547440,silence.wav,None,1000,20,3805456,339,259.285
D,7,3547440,sinestep5.wav,None,1000,20,3807455,321,261.285
D,7,3547440,vowelstep7.wav,None,1000,20,3809455,318,263.285
D,7,3547440,vowelstep3.wav,None,1000,20,3811455,323,265.285
D,7,3547440,vowelstep7.wav,None,1000,20,3813455,325,267.285
D,7,3547440,vowelstep5.wav,None,1000,20,3815456,326,269.285
D,7,3547440,sinestep1.wav,None,1000,20,3817456,330,271.285
D,7,3547440,sinestep7.wav,None,1000,20,3819456,336,273.285
D,7,3547440,sinestep3.wav,None,1000,20,3821456,304,275.285
D,7,3547440,silence.wav,None,1000,20,3823456,320,277.285
D,7,3547440,sinestep7.wav,None,1000,20,3825456,320,279.285
D,7,3547440,vowelstep5.wav,None,1000,20,3827456,331,281.285
D,7,3547440,sinestep1.wav,None,1000,20,3829456,331,283.285
D,7,3547440,vowelstep1.wav,None,1000,20,3831455,328,285.285
D,7,3547440,sinestep1.wav,None,1000,20,3833456,341,287.285
D,7,3547440,vowelstep5.wav,None,1000,20,3835456,320,289.285
D,7,3547440,silence.wav,None,1000,20,3837456,317,291.285
D,7,3547440,sinestep3.wav,None,1000,20,3839456,319,293.285
D,7,3547440,vowelstep5.wav,None,1000,20,3841456,329,295.285
D,7,3547440,silence.wav,None,1000,20,3843456,328,297.285
D,7,3547440,sinestep3.wav,None,1000,20,3845456,325,299.285
D,7,3547440,vowelstep7.wav,None,1000,20,3847456,339,301.285
D,7,3547440,sinestep7_catch.wav,1,217,20,3849456,309,303.285
D,7,3547440,sinestep5_catch.wav,1,149,20,3851457,1098,305.285
D,7,3547440,sinestep3.wav,None,1000,20,3853457,1169,307.285
D,7,3547440,vowelstep5.wav,None,1000,20,3855456,327,309.285
D,7,3547440,silence.wav,None,1000,20,3857456,324,311.285
D,7,3547440,sinestep3_catch.wav,1,269,20,3859456,328,313.285
D,7,3547440,silence.wav,None,1000,20,3861456,1065,315.285
D,7,3547440,vowelstep7.wav,None,1000,20,3863456,318,317.285
D,7,3547440,silence.wav,None,1000,20,3865456,318,319.285
B,8,3922184,vowelstep5.wav,None,1000,20,3922191,0,1.285
B,8,3922184,silence.wav,None,1000,20,3924191,338,3.285
B,8,3922184,sinestep7.wav,None,1000,20,3926191,334,5.285
B,8,3922184,vowelstep1_catch.wav,1,398,20,3928191,318,7.285
B,8,3922184,vowelstep7.wav,None,1000,20,3930191,921,9.285
B,8,3922184,vowelstep3.wav,None,1000,20,3932191,329,11.285
B,8,3922184,vowelstep7.wav,None,1000,20,3934191,326,13.285
B,8,3922184,vowelstep5.wav,None,1000,20,3936190,336,15.285
B,8,3922184,vowelstep7.wav,None,1000,20,3938191,336,17.285
B,8,3922184,vowelstep3.wav,None,1000,20,3940191,335,19.285
B,8,3922184,silence.wav,None,1000,20,3942191,341,21.285
B,8,3922184,silence.wav,None,1000,20,3944191,327,23.285
B,8,3922184,sinestep5.wav,None,1000,20,3946191,321,25.285
B,8,3922184,sinestep1.wav,None,1000,20,3948191,328,27.285
B,8,3922184,vowelstep7.wav,None,1000,20,3950191,332,29.285
B,8,3922184,sinestep5.wav,None,1000,20,3952191,338,31.285
B,8,3922184,vowelstep1.wav,None,1000,20,3954191,337,33.285
B,8,3922184,vowelstep7.wav,None,1000,20,3956192,347,35.285
B,8,3922184,vowelstep3.wav,None,1000,20,3958192,323,37.285
B,8,3922184,sinestep5.wav,None,1000,20,3960192,326,39.285
B,8,3922184,vowelstep1.wav,None,1000,20,3962191,325,41.285
B,8,3922184,sinestep3.wav,None,1000,20,3964191,333,43.285
B,8,3922184,vowelstep5.wav,None,1000,20,3966191,333,45.285
B,8,3922184,vowelstep7.wav,None,1000,20,3968191,337,47.285
B,8,3922184,vowelstep3.wav,None,1000,20,3970191,346,49.285
B,8,3922184,sinestep7.wav,None,1000,20,3972191,314,51.285
B,8,3922184,sinestep3.wav,None,1000,20,3974192,323,53.285
B,8,3922184,sinestep1.wav,None,1000,20,3976192,325,55.285
B,8,3922184,sinestep1.wav,None,1000,20,3978192,330,57.285
B,8,3922184,sinestep5.wav,None,1000,20,3980192,335,59.285
B,8,3922184,vowelstep5.wav,None,1000,20,3982192,329,61.285
B,8,3922184,vowelstep3_catch.wav,1,406,20,3984192,335,63.285
B,8,3922184,vowelstep7.wav,None,1000,20,3986191,917,65.285
B,8,3922184,sinestep1.wav,None,1000,20,3988191,326,67.285
B,8,3922184,vowelstep5.wav,None,1000,20,3990192,321,69.285
B,8,3922184,vowelstep5_catch.wav,1,386,20,3992192,325,71.285
B,8,3922184,vowelstep7.wav,None,1000,20,3994192,945,73.285
B,8,3922184,sinestep3.wav,None,1000,20,3996192,335,75.285
B,8,3922184,vowelstep7_catch.wav,1,331,20,3998192,314,77.285
B,8,3922184,sinestep5.wav,None,1000,20,4000192,979,79.285
B,8,3922184,vowelstep5.wav,None,1000,20,4002192,325,81.285
B,8,3922184,silence.wav,None,1000,20,4004192,341,83.285
B,8,3922184,silence.wav,None,1000,20,4006192,334,85.285
B,8,3922184,vowelstep3.wav,None,1000,20,4008193,332,87.285
B,8,3922184,silence.wav,None,1000,20,4010192,332,89.285
B,8,3922184,sinestep1.wav,None,1000,20,4012192,331,91.285
B,8,3922184,sinestep1.wav,None,1000,20,4014192,343,93.285
B,8,3922184,sinestep5.wav,None,1000,20,4016192,341,95.285
B,8,3922184,vowelstep7.wav,None,1000,20,4018192,351,97.285
B,8,3922184,sinestep5.wav,None,1000,20,4020192,318,99.285
B,8,3922184,sinestep5.wav,None,1000,20,4022192,333,101.285
B,8,3922184,silence.wav,None,1000,20,4024192,329,103.285
B,8,3922184,vowelstep1.wav,None,1000,20,4026193,334,105.285
B,8,3922184,silence.wav,None,1000,20,4028193,339,107.285
B,8,3922184,sinestep1.wav,None,1000,20,4030193,341,109.285
B,8,3922184,vowelstep7.wav,None,1000,20,4032193,342,111.285
B,8,3922184,silence.wav,None,1000,20,4034192,353,113.285
B,8,3922184,sinestep1.wav,None,1000,20,4036192,332,115.285
B,8,3922184,vowelstep3.wav,None,1000,20,4038192,326,117.285
B,8,3922184,vowelstep5.wav,None,1000,20,4040192,331,119.285
B,8,3922184,silence.wav,None,1000,20,4042192,342,121.285
B,8,3922184,sinestep3.wav,None,1000,20,4044193,339,123.285
B,8,3922184,sinestep5.wav,None,1000,20,4046193,340,125.285
B,8,3922184,silence.wav,None,1000,20,4048193,344,127.285
B,8,3922184,vowelstep5.wav,None,1000,20,4050193,330,129.285
B,8,3922184,sinestep3.wav,None,1000,20,4052193,330,131.285
B,8,3922184,sinestep5.wav,None,1000,20,4054193,326,133.285
B,8,3922184,sinestep5.wav,None,1000,20,4056193,325,135.285
B,8,3922184,sinestep7.wav,None,1000,20,4058192,339,137.285
B,8,3922184,sinestep7.wav,None,1000,20,4060193,338,139.285
B,8,3922184,vowelstep5.wav,None,1000,20,4062193,320,141.285
B,8,3922184,sinestep1.wav,None,1000,20,4064193,318,143.285
B,8,3922184,vowelstep7.wav,None,1000,20,4066193,327,145.285
B,8,3922184,sinestep7.wav,None,1000,20,4068193,329,147.285
B,8,3922184,vowelstep5.wav,None,1000,20,4070193,334,149.285
B,8,3922184,vowelstep1.wav,None,1000,20,4072193,339,151.285
B,8,3922184,sinestep3.wav,None,1000,20,4074193,338,153.285
B,8,3922184,silence.wav,None,1000,20,4076193,346,155.285
B,8,3922184,silence.wav,None,1000,20,4078194,327,157.285
B,8,3922184,sinestep7_catch.wav,1,400,20,4080194,326,159.285
B,8,3922184,vowelstep5.wav,None,1000,20,4082193,927,161.285
B,8,3922184,sinestep7.wav,None,1000,20,4084193,339,163.285
B,8,3922184,vowelstep5.wav,None,1000,20,4086193,338,165.285
B,8,3922184,vowelstep3.wav,None,1000,20,4088193,338,167.285
B,8,3922184,silence.wav,None,1000,20,4090193,345,169.285
B,8,3922184,sinestep3.wav,None,1000,20,4092193,317,171.285
B,8,3922184,sinestep7_catch.wav,1,246,20,4094193,325,173.285
B,8,3922184,sinestep3.wav,None,1000,20,4096194,1079,175.285
B,8,3922184,sinestep5_catch.wav,1,248,20,4098194,334,177.285
B,8,3922184,vowelstep5.wav,None,1000,20,4100194,1089,179.285
B,8,3922184,silence.wav,None,1000,20,4102194,334,181.285
B,8,3922184,sinestep7.wav,None,1000,20,4104194,349,183.285
B,8,3922184,silence.wav,None,1000,20,4106194,327,185.285
B,8,3922184,sinestep3.wav,None,1000,20,4108193,327,187.285
B,8,3922184,silence.wav,None,1000,20,4110193,327,189.285
B,8,3922184,vowelstep7.wav,None,1000,20,4112193,338,191.285
B,8,3922184,vowelstep3.wav,None,1000,20,4114194,337,193.285
B,8,3922184,vowelstep3.wav,None,1000,20,4116194,336,195.285
B,8,3922184,sinestep7.wav,None,1000,20,4118194,342,197.285
B,8,3922184,sinestep7.wav,None,1000,20,4120194,326,199.285
B,8,3922184,sinestep3.wav,None,1000,20,4122194,324,201.285
B,8,3922184,sinestep3_catch.wav,1,480,20,4124194,327,203.285
B,8,3922184,sinestep1.wav,None,1000,20,4126194,843,205.285
B,8,3922184,sinestep1.wav,None,1000,20,4128194,336,207.285
B,8,3922184,sinestep3.wav,None,1000,20,4130195,337,209.285
B,8,3922184,silence.wav,None,1000,20,4132194,329,211.285
B,8,3922184,silence.wav,None,1000,20,4134194,314,213.285
B,8,3922184,sinestep5_catch.wav,1,340,20,4136194,321,215.285
B,8,3922184,sinestep7.wav,None,1000,20,4138194,981,217.285
B,8,3922184,sinestep7.wav,None,1000,20,4140194,323,219.285
B,8,3922184,vowelstep3.wav,None,1000,20,4142194,333,221.285
B,8,3922184,sinestep1_catch.wav,1,315,20,4144194,335,223.285
B,8,3922184,vowelstep5.wav,None,1000,20,4146194,1018,225.285
B,8,3922184,sinestep1.wav,None,1000,20,4148195,324,227.285
B,8,3922184,vowelstep1.wav,None,1000,20,4150195,322,229.285
B,8,3922184,vowelstep1.wav,None,1000,20,4152195,318,231.285
B,8,3922184,sinestep5.wav,None,1000,20,4154195,324,233.285
B,8,3922184,silence.wav,None,1000,20,4156194,327,235.285
B,8,3922184,silence.wav,None,1000,20,4158194,332,237.285
B,8,3922184,vowelstep1.wav,None,1000,20,4160194,333,239.285
B,8,3922184,vowelstep1.wav,None,1000,20,4162194,314,241.285
B,8,3922184,silence.wav,None,1000,20,4164194,324,243.285
B,8,3922184,vowelstep1_catch.wav,1,467,20,4166195,315,245.285
B,8,3922184,sinestep7.wav,None,1000,20,4168195,856,247.285
B,8,3922184,sinestep1.wav,None,1000,20,4170195,326,249.285
B,8,3922184,vowelstep1.wav,None,1000,20,4172195,331,251.285
B,8,3922184,vowelstep3.wav,None,1000,20,4174195,326,253.285
B,8,3922184,sinestep3.wav,None,1000,20,4176195,337,255.285
B,8,3922184,silence.wav,None,1000,20,4178195,321,257.285
B,8,3922184,vowelstep3.wav,None,1000,20,4180194,323,259.285
B,8,3922184,silence.wav,None,1000,20,4182194,322,261.285
B,8,3922184,vowelstep3.wav,None,1000,20,4184195,326,263.285
B,8,3922184,sinestep5.wav,None,1000,20,4186195,329,265.285
B,8,3922184,vowelstep3_catch.wav,1,409,20,4188195,330,267.285
B,8,3922184,sinestep3.wav,None,1000,20,4190195,926,269.285
B,8,3922184,sinestep1.wav,None,1000,20,4192195,321,271.285
B,8,3922184,vowelstep3.wav,None,1000,20,4194195,323,273.285
B,8,3922184,vowelstep1.wav,None,1000,20,4196195,321,275.285
B,8,3922184,vowelstep5_catch.wav,1,314,20,4198195,327,277.285
B,8,3922184,vowelstep1.wav,None,1000,20,4200196,1013,279.285
B,8,3922184,vowelstep5.wav,None,1000,20,4202196,329,281.285
B,8,3922184,sinestep7.wav,None,1000,20,4204195,341,283.285
B,8,3922184,vowelstep7.wav,None,1000,20,4206195,310,285.285
B,8,3922184,vowelstep1_catch.wav,1,330,20,4208195,317,287.285
B,8,3922184,sinestep1.wav,None,1000,20,4210195,985,289.285
B,8,3922184,vowelstep1.wav,None,1000,20,4212195,331,291.285
B,8,3922184,sinestep5.wav,None,1000,20,4214195,327,293.285
B,8,3922184,vowelstep7.wav,None,1000,20,4216195,330,295.285
B,8,3922184,sinestep7.wav,None,1000,20,4218196,330,297.285
B,8,3922184,vowelstep7_catch.wav,1,351,20,4220196,319,299.285
B,8,3922184,sinestep3.wav,None,1000,20,4222196,968,301.285
B,8,3922184,vowelstep3.wav,None,1000,20,4224196,318,303.285
B,8,3922184,sinestep5.wav,None,1000,20,4226196,319,305.285
B,8,3922184,vowelstep1.wav,None,1000,20,4228196,328,307.285
B,8,3922184,vowelstep7.wav,None,1000,20,4230195,323,309.285
B,8,3922184,vowelstep1.wav,None,1000,20,4232195,323,311.285
B,8,3922184,sinestep7.wav,None,1000,20,4234195,310,313.285
B,8,3922184,sinestep3.wav,None,1000,20,4236196,340,315.285
B,8,3922184,silence.wav,None,1000,20,4238196,316,317.285
B,8,3922184,vowelstep1.wav,None,1000,20,4240196,318,319.285
I,9,4295330,vowelstep7.wav,None,1000,20,4295347,0,1.285
I,9,4295330,sinestep1_catch.wav,1,317,20,4297347,332,3.285
I,9,4295330,sinestep3.wav,None,1000,20,4299347,1010,5.285
I,9,4295330,silence.wav,None,1000,20,4301347,322,7.285
I,9,4295330,vowelstep7.wav,None,1000,20,4303346,331,9.285
I,9,4295330,sinestep3_catch.wav,1,400,20,4305347,311,11.285
I,9,4295330,vowelstep3.wav,None,1000,20,4307347,919,13.285
I,9,4295330,vowelstep3.wav,None,1000,20,4309347,316,15.285
I,9,4295330,silence.wav,None,1000,20,4311347,329,17.285
I,9,4295330,vowelstep1.wav,None,1000,20,4313347,331,19.285
I,9,4295330,vowelstep5.wav,None,1000,20,4315347,327,21.285
I,9,4295330,vowelstep7.wav,None,1000,20,4317347,331,23.285
I,9,4295330,sinestep1.wav,None,1000,20,4319347,314,25.285
I,9,4295330,vowelstep1.wav,None,1000,20,4321347,321,27.285
I,9,4295330,sinestep5_catch.wav,1,305,20,4323348,319,29.285
I,9,4295330,sinestep5.wav,None,1000,20,4325348,1014,31.285
I,9,4295330,vowelstep1.wav,None,1000,20,4327347,329,33.285
I,9,4295330,sinestep7.wav,None,1000,20,4329347,330,35.285
I,9,4295330,vowelstep3.wav,None,1000,20,4331347,339,37.285
I,9,4295330,vowelstep1.wav,None,1000,20,4333347,310,39.285
I,9,4295330,vowelstep1.wav,None,1000,20,4335347,319,41.285
I,9,4295330,sinestep3.wav,None,1000,20,4337347,319,43.285
I,9,4295330,sinestep5.wav,None,1000,20,4339347,313,45.285
I,9,4295330,sinestep5.wav,None,1000,20,4341348,330,47.285
I,9,4295330,vowelstep3.wav,None,1000,20,4343348,327,49.285
I,9,4295330,silence.wav,None,1000,20,4345348,327,51.285
I,9,4295330,sinestep7_catch.wav,1,468,20,4347348,334,53.285
I,9,4295330,silence.wav,None,1000,20,4349348,849,55.285
I,9,4295330,sinestep1.wav,None,1000,20,4351347,313,57.285
I,9,4295330,vowelstep1.wav,None,1000,20,4353347,317,59.285
I,9,4295330,sinestep1.wav,None,1000,20,4355347,328,61.285
I,9,4295330,sinestep1.wav,None,1000,20,4357348,327,63.285
I,9,4295330,vowelstep7.wav,None,1000,20,4359348,334,65.285
I,9,4295330,sinestep5.wav,None,1000,20,4361348,338,67.285
I,9,4295330,sinestep5_catch.wav,1,429,20,4363348,318,69.285
I,9,4295330,vowelstep7.wav,None,1000,20,4365348,883,71.285
I,9,4295330,vowelstep5.wav,None,1000,20,4367348,326,73.285
I,9,4295330,sinestep3.wav,None,1000,20,4369348,328,75.285
I,9,4295330,vowelstep1.wav,None,1000,20,4371348,321,77.285
I,9,4295330,sinestep3.wav,None,1000,20,4373348,322,79.285
I,9,4295330,sinestep5.wav,None,1000,20,4375348,335,81.285
I,9,4295330,sinestep5.wav,None,1000,20,4377348,317,83.285
I,9,4295330,vowelstep5.wav,None,1000,20,4379348,312,85.285
I,9,4295330,vowelstep7.wav,None,1000,20,4381348,316,87.285
I,9,4295330,sinestep3.wav,None,1000,20,4383348,317,89.285
I,9,4295330,vowelstep3.wav,None,1000,20,4385348,327,91.285
I,9,4295330,sinestep3.wav,None,1000,20,4387348,324,93.285
I,9,4295330,vowelstep5.wav,None,1000,20,4389348,333,95.285
I,9,4295330,sinestep7.wav,None,1000,20,4391348,316,97.285
I,9,4295330,sinestep3_catch.wav,1,321,20,4393349,317,99.285
I,9,4295330,sinestep1_catch.wav,1,287,20,4395349,994,101.285
I,9,4295330,vowelstep3.wav,None,1000,20,4397349,1034,103.285
I,9,4295330,vowelstep3.wav,None,1000,20,4399348,322,105.285
I,9,4295330,vowelstep5.wav,None,1000,20,4401348,325,107.285
I,9,4295330,sinestep5.wav,None,1000,20,4403348,304,109.285
I,9,4295330,vowelstep5.wav,None,1000,20,4405348,306,111.285
I,9,4295330,vowelstep5.wav,None,1000,20,4407348,316,113.285
I,9,4295330,vowelstep1.wav,None,1000,20,4409348,312,115.285
I,9,4295330,vowelstep1_catch.wav,1,280,20,4411349,324,117.285
I,9,4295330,sinestep7.wav,None,1000,20,4413349,1036,119.285
I,9,4295330,vowelstep3.wav,None,1000,20,4415349,324,121.285
I,9,4295330,sinestep7.wav,None,1000,20,4417349,333,123.285
I,9,4295330,sinestep7.wav,None,1000,20,4419349,315,125.285
I,9,4295330,vowelstep7.wav,None,1000,20,4421349,310,127.285
I,9,4295330,vowelstep3.wav,None,1000,20,4423348,311,129.285
I,9,4295330,sinestep5.wav,None,1000,20,4425348,324,131.285
I,9,4295330,sinestep5.wav,None,1000,20,4427349,324,133.285
I,9,4295330,vowelstep3.wav,None,1000,20,4429349,320,135.285
I,9,4295330,sinestep5.wav,None,1000,20,4431349,333,137.285
I,9,4295330,sinestep1.wav,None,1000,20,4433349,311,139.285
I,9,4295330,vowelstep7.wav,None,1000,20,4435349,313,141.285
I,9,4295330,silence.wav,None,1000,20,4437349,313,143.285
I,9,4295330,vowelstep7.wav,None,1000,20,4439349,319,145.285
I,9,4295330,silence.wav,None,1000,20,4441349,321,147.285
I,9,4295330,sinestep1.wav,None,1000,20,4443349,323,149.285
I,9,4295330,vowelstep1.wav,None,1000,20,4445350,319,151.285
I,9,4295330,vowelstep3.wav,None,1000,20,4447350,310,153.285
I,9,4295330,silence.wav,None,1000,20,4449333,312,155.285
I,9,4295330,silence.wav,None,1000,20,4451333,339,157.285
I,9,4295330,vowelstep1.wav,None,1000,20,4453349,342,159.285
I,9,4295330,sinestep1.wav,None,1000,20,4455349,317,161.285
I,9,4295330,vowelstep3_catch.wav,1,419,20,4457349,322,163.285
I,9,4295330,sinestep1.wav,None,1000,20,4459349,898,165.285
I,9,4295330,vowelstep5.wav,None,1000,20,4461349,329,167.285
I,9,4295330,vowelstep5_catch.wav,1,420,20,4463350,311,169.285
I,9,4295330,sinestep1.wav,None,1000,20,4465333,884,171.285
I,9,4295330,silence.wav,None,1000,20,4467333,342,173.285
I,9,4295330,vowelstep5.wav,None,1000,20,4469333,340,175.285
I,9,4295330,sinestep3.wav,None,1000,20,4471350,340,177.285
I,9,4295330,sinestep3.wav,None,1000,20,4473349,321,179.285
I,9,4295330,silence.wav,None,1000,20,4475349,323,181.285
I,9,4295330,silence.wav,None,1000,20,4477349,308,183.285
I,9,4295330,vowelstep3.wav,None,1000,20,4479349,308,185.285
I,9,4295330,vowelstep7.wav,None,1000,20,4481333,311,187.285
I,9,4295330,vowelstep7.wav,None,1000,20,4483333,339,189.285
I,9,4295330,silence.wav,None,1000,20,4485333,340,191.285
I,9,4295330,sinestep3.wav,None,1000,20,4487333,350,193.285
I,9,4295330,sinestep3.wav,None,1000,20,4489350,330,195.285
I,9,4295330,vowelstep5.wav,None,1000,20,4491350,311,197.285
I,9,4295330,vowelstep1.wav,None,1000,20,4493350,330,199.285
I,9,4295330,vowelstep1.wav,None,1000,20,4495350,310,201.285
I,9,4295330,sinestep5.wav,None,1000,20,4497334,319,203.285
I,9,4295330,silence.wav,None,1000,20,4499334,339,205.285
I,9,4295330,sinestep5.wav,None,1000,20,4501334,349,207.285
I,9,4295330,sinestep7.wav,None,1000,20,4503334,329,209.285
I,9,4295330,sinestep1.wav,None,1000,20,4505333,329,211.285
I,9,4295330,sinestep5.wav,None,1000,20,4507333,329,213.285
I,9,4295330,vowelstep5.wav,None,1000,20,4509350,332,215.285
I,9,4295330,sinestep7.wav,None,1000,20,4511350,320,217.285
I,9,4295330,sinestep5.wav,None,1000,20,4513333,316,219.285
I,9,4295330,sinestep3.wav,None,1000,20,4515334,346,221.285
I,9,4295330,silence.wav,None,1000,20,4517334,317,223.285
I,9,4295330,vowelstep7_catch.wav,1,338,20,4519334,327,225.285
I,9,4295330,sinestep7.wav,None,1000,20,4521334,989,227.285
I,9,4295330,sinestep7.wav,None,1000,20,4523334,338,229.285
I,9,4295330,sinestep3.wav,None,1000,20,4525334,334,231.285
I,9,4295330,vowelstep3.wav,None,1000,20,4527350,338,233.285
I,9,4295330,silence.wav,None,1000,20,4529334,314,235.285
I,9,4295330,sinestep3.wav,None,1000,20,4531333,328,237.285
I,9,4295330,sinestep5.wav,None,1000,20,4533334,326,239.285
I,9,4295330,silence.wav,None,1000,20,4535334,326,241.285
I,9,4295330,vowelstep3.wav,None,1000,20,4537334,330,243.285
I,9,4295330,sinestep1.wav,None,1000,20,4539334,332,245.285
I,9,4295330,sinestep1.wav,None,1000,20,4541334,334,247.285
I,9,4295330,sinestep7.wav,None,1000,20,4543334,345,249.285
I,9,4295330,vowelstep7.wav,None,1000,20,4545334,318,251.285
I,9,4295330,vowelstep5.wav,None,1000,20,4547334,324,253.285
I,9,4295330,silence.wav,None,1000,20,4549334,327,255.285
I,9,4295330,sinestep3.wav,None,1000,20,4551335,326,257.285
I,9,4295330,vowelstep1.wav,None,1000,20,4553334,332,259.285
I,9,4295330,vowelstep1.wav,None,1000,20,4555334,336,261.285
I,9,4295330,silence.wav,None,1000,20,4557334,335,263.285
I,9,4295330,vowelstep3.wav,None,1000,20,4559334,314,265.285
I,9,4295330,silence.wav,None,1000,20,4561334,325,267.285
I,9,4295330,silence.wav,None,1000,20,4563334,346,269.285
I,9,4295330,sinestep7.wav,None,1000,20,4565334,334,271.285
I,9,4295330,sinestep7.wav,None,1000,20,4567335,335,273.285
I,9,4295330,vowelstep5.wav,None,1000,20,4569335,334,275.285
I,9,4295330,silence.wav,None,1000,20,4571335,334,277.285
I,9,4295330,silence.wav,None,1000,20,4573335,337,279.285
I,9,4295330,sinestep1.wav,None,1000,20,4575335,341,281.285
I,9,4295330,silence.wav,None,1000,20,4577335,351,283.285
I,9,4295330,vowelstep7.wav,None,1000,20,4579334,319,285.285
I,9,4295330,vowelstep5_catch.wav,1,378,20,4581334,327,287.285
I,9,4295330,sinestep7.wav,None,1000,20,4583334,953,289.285
I,9,4295330,sinestep1.wav,None,1000,20,4585335,341,291.285
I,9,4295330,vowelstep3_catch.wav,1,334,20,4587335,341,293.285
I,9,4295330,sinestep1.wav,None,1000,20,4589335,1005,295.285
I,9,4295330,vowelstep7.wav,None,1000,20,4591335,340,297.285
I,9,4295330,sinestep3.wav,None,1000,20,4593335,347,299.285
I,9,4295330,vowelstep5.wav,None,1000,20,4595335,328,301.285
I,9,4295330,vowelstep1_catch.wav,1,366,20,4597335,332,303.285
I,9,4295330,vowelstep7.wav,None,1000,20,4599335,966,305.285
I,9,4295330,vowelstep5.wav,None,1000,20,4601335,340,307.285
I,9,4295330,sinestep1_catch.wav,1,487,20,4603335,340,309.285
I,9,4295330,silence.wav,None,1000,20,4605335,863,311.285
I,9,4295330,sinestep7.wav,None,1000,20,4607335,351,313.285
I,9,4295330,silence.wav,None,1000,20,4609335,331,315.285
I,9,4295330,vowelstep1.wav,None,1000,20,4611335,330,317.285
I,9,4295330,sinestep7.wav,None,1000,20,4613335,332,319.285