block,count_main_sequence,first_trial_timestamp,fname,response_catch_response,response_time_catch_response,subject_nr,time_stimulus,time_to_pad,timing
P,NA,174927,vowelstep1_catch.wav,None,1000,30,174941,0,
P,NA,174927,sinestep7_catch.wav,None,1000,30,176941,118,
P,NA,174927,vowelstep5_catch.wav,1,351,30,178941,435,
P,NA,174927,sinestep7.wav,None,1000,30,180941,1082,
P,NA,174927,sinestep7.wav,None,1000,30,182941,444,
P,NA,174927,sinestep3.wav,None,1000,30,184941,445,
P,NA,174927,sinestep1.wav,None,1000,30,186940,445,
P,NA,174927,vowelstep7.wav,None,1000,30,188941,455,
P,NA,174927,vowelstep3.wav,None,1000,30,190941,434,
P,NA,174927,silence.wav,None,1000,30,192941,433,
P,NA,174927,sinestep1.wav,None,1000,30,194941,434,
P,NA,174927,vowelstep1.wav,None,1000,30,196941,443,
P,NA,174927,sinestep5.wav,None,1000,30,198941,444,
P,NA,174927,sinestep1.wav,None,1000,30,200941,443,
P,NA,174927,sinestep1.wav,None,1000,30,202941,454,
P,NA,174927,vowelstep1.wav,None,1000,30,204941,423,
P,NA,174927,silence.wav,None,1000,30,206942,433,
P,NA,174927,silence.wav,None,1000,30,208941,433,
P,NA,174927,silence.wav,None,1000,30,210941,443,
P,NA,174927,sinestep3_catch.wav,1,184,30,212941,443,
P,NA,174927,vowelstep7.wav,None,1000,30,214941,1258,
P,NA,174927,silence.wav,None,1000,30,216941,423,
P,NA,174927,vowelstep7.wav,None,1000,30,218941,432,
P,NA,174927,vowelstep3.wav,None,1000,30,220941,433,
P,NA,174927,silence.wav,None,1000,30,222942,432,
P,NA,174927,vowelstep1.wav,None,1000,30,224942,442,
P,NA,174927,sinestep3.wav,None,1000,30,226942,441,
P,NA,174927,vowelstep1.wav,None,1000,30,228942,442,
P,NA,174927,silence.wav,None,1000,30,230942,441,
P,NA,174927,sinestep7.wav,None,1000,30,232941,432,
P,NA,174927,sinestep5_catch.wav,1,373,30,234941,431,
P,NA,174927,silence.wav,None,1000,30,236941,1057,
P,NA,174927,sinestep7.wav,None,1000,30,238941,439,
P,NA,174927,sinestep5.wav,None,1000,30,240942,442,
P,NA,174927,sinestep3.wav,None,1000,30,242942,440,
P,NA,174927,sinestep1_catch.wav,1,479,30,244942,420,
P,NA,174927,vowelstep3_catch.wav,1,255,30,246942,949,
P,NA,174927,vowelstep5_catch.wav,1,266,30,248942,1175,
P,NA,174927,vowelstep7.wav,None,1000,30,250942,1163,
P,NA,174927,silence.wav,None,1000,30,252942,438,
P,NA,174927,vowelstep7_catch.wav,1,771,30,254942,440,
P,NA,174927,vowelstep3.wav,None,1000,30,256941,669,
P,NA,174927,silence.wav,None,1000,30,258942,440,
P,NA,174927,sinestep7_catch.wav,1,187,30,260942,429,
P,NA,174927,sinestep7.wav,None,1000,30,262942,1239,
P,NA,174927,vowelstep5.wav,None,1000,30,264942,430,
P,NA,174927,vowelstep3.wav,None,1000,30,266942,430,
P,NA,174927,sinestep5.wav,None,1000,30,268942,440,
P,NA,174927,sinestep5_catch.wav,1,180,30,270942,439,
P,NA,174927,sinestep3.wav,None,1000,30,272942,1268,
P,NA,174927,silence.wav,None,1000,30,274943,430,
P,NA,174927,vowelstep7.wav,None,1000,30,276943,428,
P,NA,174927,sinestep3_catch.wav,1,128,30,278942,429,
P,NA,174927,vowelstep5.wav,None,1000,30,280942,1309,
P,NA,174927,silence.wav,None,1000,30,282942,436,
P,NA,174927,sinestep1.wav,None,1000,30,284942,439,
P,NA,174927,vowelstep1.wav,None,1000,30,286942,439,
P,NA,174927,silence.wav,None,1000,30,288942,419,
P,NA,174927,silence.wav,None,1000,30,290942,429,
P,NA,174927,silence.wav,None,1000,30,292943,428,
P,NA,174927,sinestep1_catch.wav,1,187,30,294943,428,
P,NA,174927,sinestep1.wav,None,1000,30,296943,1250,
P,NA,174927,silence.wav,None,1000,30,298943,437,
P,NA,174927,vowelstep1_catch.wav,1,248,30,300943,437,
P,NA,174927,vowelstep5.wav,None,1000,30,302943,1201,
P,NA,174927,sinestep5.wav,None,1000,30,304942,429,
P,NA,174927,vowelstep3.wav,None,1000,30,306942,429,
P,NA,174927,silence.wav,None,1000,30,308942,429,
P,NA,174927,silence.wav,None,1000,30,310943,437,
P,NA,174927,sinestep7.wav,None,1000,30,312943,438,
P,NA,174927,vowelstep5.wav,None,1000,30,314943,439,
P,NA,174927,silence.wav,None,1000,30,316943,416,
P,NA,174927,vowelstep3_catch.wav,1,290,30,318943,418,
P,NA,174927,silence.wav,None,1000,30,320943,1134,
P,NA,174927,vowelstep5.wav,None,1000,30,322943,428,
P,NA,174927,vowelstep5_catch.wav,1,212,30,324943,438,
P,NA,174927,vowelstep7_catch.wav,1,337,30,326942,1225,
P,NA,174927,sinestep3.wav,None,1000,30,328943,1100,
P,NA,174927,vowelstep5.wav,None,1000,30,330943,447,
P,NA,174927,vowelstep3.wav,None,1000,30,332943,427,
P,NA,174927,silence.wav,None,1000,30,334943,427,
P,NA,174927,sinestep3.wav,None,1000,30,336943,427,
P,NA,174927,silence.wav,None,1000,30,338943,437,
P,NA,174927,sinestep7_catch.wav,1,219,30,340943,437,
P,NA,174927,sinestep5_catch.wav,1,192,30,342943,1217,
P,NA,174927,sinestep5.wav,None,1000,30,344944,1254,
P,NA,174927,sinestep5.wav,None,1000,30,346944,426,
P,NA,174927,vowelstep7.wav,None,1000,30,348943,426,
P,NA,174927,sinestep3_catch.wav,1,76,30,350943,456,
P,NA,174927,vowelstep1.wav,None,1000,30,352943,1359,
B,0,757569,vowelstep5.wav,None,1000,30,757582,0,1.285
B,0,757569,silence.wav,None,1000,30,759582,329,3.285
B,0,757569,sinestep7.wav,None,1000,30,761582,334,5.285
B,0,757569,vowelstep1_catch.wav,1,163,30,763582,337,7.285
B,0,757569,vowelstep7.wav,None,1000,30,765583,1181,9.285
B,0,757569,vowelstep3.wav,None,1000,30,767583,342,11.285
B,0,757569,vowelstep7.wav,None,1000,30,769583,333,13.285
B,0,757569,vowelstep5.wav,None,1000,30,771583,333,15.285
B,0,757569,vowelstep7.wav,None,1000,30,773583,333,17.285
B,0,757569,vowelstep3.wav,None,1000,30,775583,333,19.285
B,0,757569,silence.wav,None,1000,30,777582,343,21.285
B,0,757569,silence.wav,None,1000,30,779582,339,23.285
B,0,757569,sinestep5.wav,None,1000,30,781582,342,25.285
B,0,757569,sinestep1.wav,None,1000,30,783583,350,27.285
B,0,757569,vowelstep7.wav,None,1000,30,785583,330,29.285
B,0,757569,sinestep5.wav,None,1000,30,787583,332,31.285
B,0,757569,vowelstep1.wav,None,1000,30,789583,331,33.285
B,0,757569,vowelstep7.wav,None,1000,30,791583,342,35.285
B,0,757569,vowelstep3.wav,None,1000,30,793583,337,37.285
B,0,757569,sinestep5.wav,None,1000,30,795583,340,39.285
B,0,757569,vowelstep1.wav,None,1000,30,797583,321,41.285
B,0,757569,sinestep3.wav,None,1000,30,799583,331,43.285
B,0,757569,vowelstep5.wav,None,1000,30,801583,331,45.285
B,0,757569,vowelstep7.wav,None,1000,30,803583,331,47.285
B,0,757569,vowelstep3.wav,None,1000,30,805583,341,49.285
B,0,757569,sinestep7.wav,None,1000,30,807583,338,51.285
B,0,757569,sinestep3.wav,None,1000,30,809583,338,53.285
B,0,757569,sinestep1.wav,None,1000,30,811583,352,55.285
B,0,757569,sinestep1.wav,None,1000,30,813583,326,57.285
B,0,757569,sinestep5.wav,None,1000,30,815583,331,59.285
B,0,757569,vowelstep5.wav,None,1000,30,817584,329,61.285
B,0,757569,vowelstep3_catch.wav,1,102,30,819584,330,63.285
B,0,757569,vowelstep7.wav,None,1000,30,821584,1236,65.285
B,0,757569,sinestep1.wav,None,1000,30,823583,340,67.285
B,0,757569,vowelstep5.wav,None,1000,30,825583,349,69.285
B,0,757569,vowelstep5_catch.wav,1,192,30,827583,317,71.285
B,0,757569,vowelstep7.wav,None,1000,30,829583,1138,73.285
B,0,757569,sinestep3.wav,None,1000,30,831583,324,75.285
B,0,757569,vowelstep7_catch.wav,1,343,30,833583,330,77.285
B,0,757569,sinestep5.wav,None,1000,30,835584,995,79.285
B,0,757569,vowelstep5.wav,None,1000,30,837584,339,81.285
B,0,757569,silence.wav,None,1000,30,839584,347,83.285
B,0,757569,silence.wav,None,1000,30,841584,326,85.285
B,0,757569,vowelstep3.wav,None,1000,30,843584,329,87.285
B,0,757569,silence.wav,None,1000,30,845584,323,89.285
B,0,757569,sinestep1.wav,None,1000,30,847583,329,91.285
B,0,757569,sinestep1.wav,None,1000,30,849583,337,93.285
B,0,757569,sinestep5.wav,None,1000,30,851583,338,95.285
B,0,757569,vowelstep7.wav,None,1000,30,853584,347,97.285
B,0,757569,sinestep5.wav,None,1000,30,855584,318,99.285
B,0,757569,sinestep5.wav,None,1000,30,857584,328,101.285
B,0,757569,silence.wav,None,1000,30,859584,327,103.285
B,0,757569,vowelstep1.wav,None,1000,30,861584,338,105.285
B,0,757569,silence.wav,None,1000,30,863584,338,107.285
B,0,757569,sinestep1.wav,None,1000,30,865584,336,109.285
B,0,757569,vowelstep7.wav,None,1000,30,867584,348,111.285
B,0,757569,silence.wav,None,1000,30,869584,318,113.285
B,0,757569,sinestep1.wav,None,1000,30,871584,327,115.285
B,0,757569,vowelstep3.wav,None,1000,30,873584,324,117.285
B,0,757569,vowelstep5.wav,None,1000,30,875584,337,119.285
B,0,757569,silence.wav,None,1000,30,877584,332,121.285
B,0,757569,sinestep3.wav,None,1000,30,879584,337,123.285
B,0,757569,sinestep5.wav,None,1000,30,881584,335,125.285
B,0,757569,silence.wav,None,1000,30,883584,326,127.285
B,0,757569,vowelstep5.wav,None,1000,30,885584,327,129.285
B,0,757569,sinestep3.wav,None,1000,30,887585,326,131.285
B,0,757569,sinestep5.wav,None,1000,30,889585,326,133.285
B,0,757569,sinestep5.wav,None,1000,30,891585,333,135.285
B,0,757569,sinestep7.wav,None,1000,30,893584,335,137.285
B,0,757569,sinestep7.wav,None,1000,30,895584,327,139.285
B,0,757569,vowelstep5.wav,None,1000,30,897584,316,141.285
B,0,757569,sinestep1.wav,None,1000,30,899584,325,143.285
B,0,757569,vowelstep7.wav,None,1000,30,901584,319,145.285
B,0,757569,sinestep7.wav,None,1000,30,903584,323,147.285
B,0,757569,vowelstep5.wav,None,1000,30,905585,335,149.285
B,0,757569,vowelstep1.wav,None,1000,30,907585,328,151.285
B,0,757569,sinestep3.wav,None,1000,30,909585,332,153.285
B,0,757569,silence.wav,None,1000,30,911585,344,155.285
B,0,757569,silence.wav,None,1000,30,913585,342,157.285
B,0,757569,sinestep7_catch.wav,1,183,30,915585,344,159.285
B,0,757569,vowelstep5.wav,None,1000,30,917584,1141,161.285
B,0,757569,sinestep7.wav,None,1000,30,919584,335,163.285
B,0,757569,vowelstep5.wav,None,1000,30,921584,331,165.285
B,0,757569,vowelstep3.wav,None,1000,30,923585,334,167.285
B,0,757569,silence.wav,None,1000,30,925585,338,169.285
B,0,757569,sinestep3.wav,None,1000,30,927585,344,171.285
B,0,757569,sinestep7_catch.wav,1,146,30,929585,341,173.285
B,0,757569,sinestep3.wav,None,1000,30,931585,1206,175.285
B,0,757569,sinestep5_catch.wav,1,137,30,933585,333,177.285
B,0,757569,vowelstep5.wav,None,1000,30,935585,1195,179.285
B,0,757569,silence.wav,None,1000,30,937585,329,181.285
B,0,757569,sinestep7.wav,None,1000,30,939585,344,183.285
B,0,757569,silence.wav,None,1000,30,941585,341,185.285
B,0,757569,sinestep3.wav,None,1000,30,943585,342,187.285
B,0,757569,silence.wav,None,1000,30,945585,352,189.285
B,0,757569,vowelstep7.wav,None,1000,30,947585,332,191.285
B,0,757569,vowelstep3.wav,None,1000,30,949585,333,193.285
B,0,757569,vowelstep3.wav,None,1000,30,951585,333,195.285
B,0,757569,sinestep7.wav,None,1000,30,953585,342,197.285
B,0,757569,sinestep7.wav,None,1000,30,955585,342,199.285
B,0,757569,sinestep3.wav,None,1000,30,957586,343,201.285
B,0,757569,sinestep3_catch.wav,1,142,30,959586,351,203.285
B,0,757569,sinestep1.wav,None,1000,30,961586,1178,205.285
B,0,757569,sinestep1.wav,None,1000,30,963585,331,207.285
B,0,757569,sinestep3.wav,None,1000,30,965585,331,209.285
B,0,757569,silence.wav,None,1000,30,967585,340,211.285
B,0,757569,silence.wav,None,1000,30,969585,341,213.285
B,0,757569,sinestep5_catch.wav,1,279,30,971585,336,215.285
B,0,757569,sinestep7.wav,None,1000,30,973585,1062,217.285
B,0,757569,sinestep7.wav,None,1000,30,975586,319,219.285
B,0,757569,vowelstep3.wav,None,1000,30,977586,330,221.285
B,0,757569,sinestep1_catch.wav,1,70,30,979586,330,223.285
B,0,757569,vowelstep5.wav,None,1000,30,981586,1258,225.285
B,0,757569,sinestep1.wav,None,1000,30,983586,340,227.285
B,0,757569,vowelstep1.wav,None,1000,30,985586,337,229.285
B,0,757569,vowelstep1.wav,None,1000,30,987585,350,231.285
B,0,757569,sinestep5.wav,None,1000,30,989585,315,233.285
B,0,757569,silence.wav,None,1000,30,991585,330,235.285
B,0,757569,silence.wav,None,1000,30,993586,328,237.285
B,0,757569,vowelstep1.wav,None,1000,30,995586,339,239.285
B,0,757569,vowelstep1.wav,None,1000,30,997586,339,241.285
B,0,757569,silence.wav,None,1000,30,999586,339,243.285
B,0,757569,vowelstep1_catch.wav,1,237,30,1001586,339,245.285
B,0,757569,sinestep7.wav,None,1000,30,1003586,1090,247.285
B,0,757569,sinestep1.wav,None,1000,30,1005586,330,249.285
B,0,757569,vowelstep1.wav,None,1000,30,1007586,329,251.285
B,0,757569,vowelstep3.wav,None,1000,30,1009586,328,253.285
B,0,757569,sinestep3.wav,None,1000,30,1011586,335,255.285
B,0,757569,silence.wav,None,1000,30,1013586,338,257.285
B,0,757569,vowelstep3.wav,None,1000,30,1015586,348,259.285
B,0,757569,silence.wav,None,1000,30,1017586,348,261.285
B,0,757569,vowelstep3.wav,None,1000,30,1019586,327,263.285
B,0,757569,sinestep5.wav,None,1000,30,1021586,328,265.285
B,0,757569,vowelstep3_catch.wav,1,290,30,1023586,328,267.285
B,0,757569,sinestep3.wav,None,1000,30,1025586,1047,269.285
B,0,757569,sinestep1.wav,None,1000,30,1027587,337,271.285
B,0,757569,vowelstep3.wav,None,1000,30,1029587,337,273.285
B,0,757569,vowelstep1.wav,None,1000,30,1031587,347,275.285
B,0,757569,vowelstep5_catch.wav,1,263,30,1033586,327,277.285
B,0,757569,vowelstep1.wav,None,1000,30,1035586,1061,279.285
B,0,757569,vowelstep5.wav,None,1000,30,1037586,327,281.285
B,0,757569,sinestep7.wav,None,1000,30,1039586,335,283.285
B,0,757569,vowelstep7.wav,None,1000,30,1041586,332,285.285
B,0,757569,vowelstep1_catch.wav,1,115,30,1043586,337,287.285
B,0,757569,sinestep1.wav,None,1000,30,1045587,1219,289.285
B,0,757569,vowelstep1.wav,None,1000,30,1047587,326,291.285
B,0,757569,sinestep5.wav,None,1000,30,1049587,320,293.285
B,0,757569,vowelstep7.wav,None,1000,30,1051587,323,295.285
B,0,757569,sinestep7.wav,None,1000,30,1053587,333,297.285
B,0,757569,vowelstep7_catch.wav,1,105,30,1055586,336,299.285
B,0,757569,sinestep3.wav,None,1000,30,1057586,1228,301.285
B,0,757569,vowelstep3.wav,None,1000,30,1059586,346,303.285
B,0,757569,sinestep5.wav,None,1000,30,1061586,325,305.285
B,0,757569,vowelstep1.wav,None,1000,30,1063587,325,307.285
B,0,757569,vowelstep7.wav,None,1000,30,1065587,322,309.285
B,0,757569,vowelstep1.wav,None,1000,30,1067587,336,311.285
B,0,757569,sinestep7.wav,None,1000,30,1069587,333,313.285
B,0,757569,sinestep3.wav,None,1000,30,1071587,335,315.285
B,0,757569,silence.wav,None,1000,30,1073587,335,317.285
B,0,757569,vowelstep1.wav,None,1000,30,1075587,324,319.285
D,1,1133032,sinestep5.wav,None,1000,30,1133038,0,1.285
D,1,1133032,vowelstep1_catch.wav,1,249,30,1135038,345,3.285
D,1,1133032,sinestep7.wav,None,1000,30,1137038,1096,5.285
D,1,1133032,vowelstep3.wav,None,1000,30,1139038,346,7.285
D,1,1133032,vowelstep3_catch.wav,1,178,30,1141038,346,9.285
D,1,1133032,vowelstep5_catch.wav,1,239,30,1143038,1148,11.285
D,1,1133032,sinestep7.wav,None,1000,30,1145038,1094,13.285
D,1,1133032,silence.wav,None,1000,30,1147038,335,15.285
D,1,1133032,vowelstep7_catch.wav,1,185,30,1149037,336,17.285
D,1,1133032,vowelstep7.wav,None,1000,30,1151038,1159,19.285
D,1,1133032,vowelstep3.wav,None,1000,30,1153038,345,21.285
D,1,1133032,vowelstep7_catch.wav,1,222,30,1155038,345,23.285
D,1,1133032,vowelstep5.wav,None,1000,30,1157038,1132,25.285
D,1,1133032,sinestep7.wav,None,1000,30,1159038,334,27.285
D,1,1133032,silence.wav,None,1000,30,1161038,334,29.285
D,1,1133032,vowelstep1.wav,None,1000,30,1163038,335,31.285
D,1,1133032,vowelstep1.wav,None,1000,30,1165038,345,33.285
D,1,1133032,vowelstep7.wav,None,1000,30,1167039,344,35.285
D,1,1133032,vowelstep3.wav,None,1000,30,1169039,349,37.285
D,1,1133032,sinestep3.wav,None,1000,30,1171039,325,39.285
D,1,1133032,sinestep1.wav,None,1000,30,1173038,320,41.285
D,1,1133032,vowelstep1.wav,None,1000,30,1175038,335,43.285
D,1,1133032,vowelstep1.wav,None,1000,30,1177038,343,45.285
D,1,1133032,sinestep7.wav,None,1000,30,1179038,345,47.285
D,1,1133032,sinestep3.wav,None,1000,30,1181038,345,49.285
D,1,1133032,vowelstep5_catch.wav,1,146,30,1183038,345,51.285
D,1,1133032,sinestep7.wav,None,1000,30,1185039,1205,53.285
D,1,1133032,vowelstep5.wav,None,1000,30,1187039,331,55.285
D,1,1133032,sinestep3.wav,None,1000,30,1189039,334,57.285
D,1,1133032,sinestep7.wav,None,1000,30,1191039,333,59.285
D,1,1133032,vowelstep3.wav,None,1000,30,1193039,344,61.285
D,1,1133032,vowelstep3.wav,None,1000,30,1195038,296,63.285
D,1,1133032,vowelstep3_catch.wav,1,209,30,1197038,342,65.285
D,1,1133032,silence.wav,None,1000,30,1199038,1144,67.285
D,1,1133032,vowelstep7.wav,None,1000,30,1201038,349,69.285
D,1,1133032,silence.wav,None,1000,30,1203039,354,71.285
D,1,1133032,sinestep1.wav,None,1000,30,1205039,319,73.285
D,1,1133032,vowelstep5.wav,None,1000,30,1207039,344,75.285
D,1,1133032,vowelstep1.wav,None,1000,30,1209039,341,77.285
D,1,1133032,sinestep7.wav,None,1000,30,1211039,342,79.285
D,1,1133032,vowelstep1.wav,None,1000,30,1213039,342,81.285
D,1,1133032,sinestep7.wav,None,1000,30,1215039,352,83.285
D,1,1133032,vowelstep7.wav,None,1000,30,1217039,352,85.285
D,1,1133032,vowelstep5.wav,None,1000,30,1219039,362,87.285
D,1,1133032,vowelstep1.wav,None,1000,30,1221039,341,89.285
D,1,1133032,sinestep5.wav,None,1000,30,1223039,341,91.285
D,1,1133032,sinestep5.wav,None,1000,30,1225039,336,93.285
D,1,1133032,vowelstep3.wav,None,1000,30,1227039,341,95.285
D,1,1133032,silence.wav,None,1000,30,1229039,351,97.285
D,1,1133032,sinestep1.wav,None,1000,30,1231039,352,99.285
D,1,1133032,sinestep1.wav,None,1000,30,1233039,358,101.285
D,1,1133032,sinestep3.wav,None,1000,30,1235039,328,103.285
D,1,1133032,vowelstep1.wav,None,1000,30,1237040,339,105.285
D,1,1133032,sinestep7.wav,None,1000,30,1239040,339,107.285
D,1,1133032,vowelstep3.wav,None,1000,30,1241040,350,109.285
D,1,1133032,silence.wav,None,1000,30,1243039,350,111.285
D,1,1133032,vowelstep5.wav,None,1000,30,1245039,350,113.285
D,1,1133032,vowelstep1.wav,None,1000,30,1247039,346,115.285
D,1,1133032,vowelstep1_catch.wav,1,122,30,1249039,339,117.285
D,1,1133032,vowelstep7.wav,None,1000,30,1251039,1218,119.285
D,1,1133032,sinestep5.wav,None,1000,30,1253039,341,121.285
D,1,1133032,vowelstep7.wav,None,1000,30,1255040,341,123.285
D,1,1133032,sinestep1.wav,None,1000,30,1257040,341,125.285
D,1,1133032,sinestep1.wav,None,1000,30,1259040,349,127.285
D,1,1133032,vowelstep3.wav,None,1000,30,1261040,359,129.285
D,1,1133032,sinestep1.wav,None,1000,30,1263040,329,131.285
D,1,1133032,silence.wav,None,1000,30,1265040,336,133.285
D,1,1133032,sinestep3.wav,None,1000,30,1267039,340,135.285
D,1,1133032,silence.wav,None,1000,30,1269039,333,137.285
D,1,1133032,vowelstep3.wav,None,1000,30,1271039,350,139.285
D,1,1133032,vowelstep5.wav,None,1000,30,1273040,348,141.285
D,1,1133032,silence.wav,None,1000,30,1275040,348,143.285
D,1,1133032,sinestep5.wav,None,1000,30,1277040,337,145.285
D,1,1133032,sinestep5.wav,None,1000,30,1279040,338,147.285
D,1,1133032,sinestep1.wav,None,1000,30,1281040,332,149.285
D,1,1133032,vowelstep5.wav,None,1000,30,1283040,332,151.285
D,1,1133032,vowelstep5.wav,None,1000,30,1285040,346,153.285
D,1,1133032,sinestep1_catch.wav,1,97,30,1287040,347,155.285
D,1,1133032,sinestep5.wav,None,1000,30,1289040,1249,157.285
D,1,1133032,vowelstep3.wav,None,1000,30,1291040,356,159.285
D,1,1133032,vowelstep7.wav,None,1000,30,1293040,337,161.285
D,1,1133032,vowelstep3.wav,None,1000,30,1295040,338,163.285
D,1,1133032,sinestep3.wav,None,1000,30,1297040,337,165.285
D,1,1133032,sinestep1.wav,None,1000,30,1299040,344,167.285
D,1,1133032,silence.wav,None,1000,30,1301040,347,169.285
D,1,1133032,sinestep1.wav,None,1000,30,1303040,346,171.285
D,1,1133032,vowelstep1.wav,None,1000,30,1305040,327,173.285
D,1,1133032,vowelstep3.wav,None,1000,30,1307041,337,175.285
D,1,1133032,silence.wav,None,1000,30,1309041,336,177.285
D,1,1133032,sinestep7.wav,None,1000,30,1311040,336,179.285
D,1,1133032,silence.wav,None,1000,30,1313040,341,181.285
D,1,1133032,vowelstep7.wav,None,1000,30,1315040,344,183.285
D,1,1133032,sinestep3.wav,None,1000,30,1317040,346,185.285
D,1,1133032,vowelstep1.wav,None,1000,30,1319040,345,187.285
D,1,1133032,sinestep7.wav,None,1000,30,1321040,335,189.285
D,1,1133032,silence.wav,None,1000,30,1323040,335,191.285
D,1,1133032,sinestep1.wav,None,1000,30,1325041,336,193.285
D,1,1133032,sinestep3.wav,None,1000,30,1327041,345,195.285
D,1,1133032,sinestep5.wav,None,1000,30,1329041,344,197.285
D,1,1133032,vowelstep3.wav,None,1000,30,1331041,345,199.285
D,1,1133032,sinestep5.wav,None,1000,30,1333041,354,201.285
D,1,1133032,sinestep5.wav,None,1000,30,1335040,335,203.285
D,1,1133032,sinestep3.wav,None,1000,30,1337040,334,205.285
D,1,1133032,sinestep3.wav,None,1000,30,1339040,335,207.285
D,1,1133032,sinestep5.wav,None,1000,30,1341040,345,209.285
D,1,1133032,sinestep3_catch.wav,1,150,30,1343041,343,211.285
D,1,1133032,vowelstep7.wav,None,1000,30,1345041,1188,213.285
D,1,1133032,sinestep1.wav,None,1000,30,1347041,350,215.285
D,1,1133032,sinestep7.wav,None,1000,30,1349041,333,217.285
D,1,1133032,vowelstep1.wav,None,1000,30,1351041,331,219.285
D,1,1133032,sinestep5.wav,None,1000,30,1353041,332,221.285
D,1,1133032,silence.wav,None,1000,30,1355041,333,223.285
D,1,1133032,sinestep5_catch.wav,1,65,30,1357041,344,225.285
D,1,1133032,sinestep5.wav,None,1000,30,1359041,1278,227.285
D,1,1133032,silence.wav,None,1000,30,1361041,349,229.285
D,1,1133032,vowelstep7.wav,None,1000,30,1363041,352,231.285
D,1,1133032,sinestep3.wav,None,1000,30,1365041,331,233.285
D,1,1133032,vowelstep5.wav,None,1000,30,1367041,333,235.285
D,1,1133032,vowelstep7.wav,None,1000,30,1369041,341,237.285
D,1,1133032,vowelstep5.wav,None,1000,30,1371041,343,239.285
D,1,1133032,silence.wav,None,1000,30,1373041,343,241.285
D,1,1133032,silence.wav,None,1000,30,1375041,352,243.285
D,1,1133032,silence.wav,None,1000,30,1377042,282,245.285
D,1,1133032,sinestep7.wav,None,1000,30,1379042,332,247.285
D,1,1133032,sinestep5.wav,None,1000,30,1381042,327,249.285
D,1,1133032,sinestep7_catch.wav,1,199,30,1383041,341,251.285
D,1,1133032,vowelstep1.wav,None,1000,30,1385041,1140,253.285
D,1,1133032,vowelstep1.wav,None,1000,30,1387041,342,255.285
D,1,1133032,vowelstep3.wav,None,1000,30,1389041,342,257.285
D,1,1133032,silence.wav,None,1000,30,1391041,331,259.285
D,1,1133032,sinestep5.wav,None,1000,30,1393041,332,261.285
D,1,1133032,vowelstep7.wav,None,1000,30,1395042,331,263.285
D,1,1133032,vowelstep3.wav,None,1000,30,1397042,330,265.285
D,1,1133032,vowelstep7.wav,None,1000,30,1399042,340,267.285
D,1,1133032,vowelstep5.wav,None,1000,30,1401042,341,269.285
D,1,1133032,sinestep1.wav,None,1000,30,1403042,341,271.285
D,1,1133032,sinestep7.wav,None,1000,30,1405041,320,273.285
D,1,1133032,sinestep3.wav,None,1000,30,1407041,331,275.285
D,1,1133032,silence.wav,None,1000,30,1409041,330,277.285
D,1,1133032,sinestep7.wav,None,1000,30,1411041,340,279.285
D,1,1133032,vowelstep5.wav,None,1000,30,1413042,340,281.285
D,1,1133032,sinestep1.wav,None,1000,30,1415042,339,283.285
D,1,1133032,vowelstep1.wav,None,1000,30,1417042,339,285.285
D,1,1133032,sinestep1.wav,None,1000,30,1419042,328,287.285
D,1,1133032,vowelstep5.wav,None,1000,30,1421042,329,289.285
D,1,1133032,silence.wav,None,1000,30,1423042,329,291.285
D,1,1133032,sinestep3.wav,None,1000,30,1425042,329,293.285
D,1,1133032,vowelstep5.wav,None,1000,30,1427042,335,295.285
D,1,1133032,silence.wav,None,1000,30,1429042,337,297.285
D,1,1133032,sinestep3.wav,None,1000,30,1431042,338,299.285
D,1,1133032,vowelstep7.wav,None,1000,30,1433042,348,301.285
D,1,1133032,sinestep7_catch.wav,1,86,30,1435042,349,303.285
D,1,1133032,sinestep5_catch.wav,1,45,30,1437042,1242,305.285
D,1,1133032,sinestep3.wav,None,1000,30,1439042,1284,307.285
D,1,1133032,vowelstep5.wav,None,1000,30,1441042,338,309.285
D,1,1133032,silence.wav,None,1000,30,1443042,339,311.285
D,1,1133032,sinestep3_catch.wav,1,129,30,1445042,339,313.285
D,1,1133032,silence.wav,None,1000,30,1447043,1215,315.285
D,1,1133032,vowelstep7.wav,None,1000,30,1449043,325,317.285
D,1,1133032,silence.wav,None,1000,30,1451043,328,319.285
A,2,1513533,sinestep5_catch.wav,1,214,30,1513543,0,1.285
A,2,1513533,vowelstep1.wav,None,1000,30,1515543,1128,3.285
A,2,1513533,vowelstep3.wav,None,1000,30,1517544,323,5.285
A,2,1513533,sinestep1.wav,None,1000,30,1519544,331,7.285
A,2,1513533,sinestep5_catch.wav,1,234,30,1521543,335,9.285
A,2,1513533,sinestep7.wav,None,1000,30,1523543,1098,11.285
A,2,1513533,sinestep3.wav,None,1000,30,1525543,344,13.285
A,2,1513533,silence.wav,None,1000,30,1527543,341,15.285
A,2,1513533,vowelstep7.wav,None,1000,30,1529543,344,17.285
A,2,1513533,sinestep7.wav,None,1000,30,1531543,354,19.285
A,2,1513533,vowelstep5_catch.wav,1,77,30,1533543,331,21.285
A,2,1513533,sinestep7.wav,None,1000,30,1535544,1255,23.285
A,2,1513533,sinestep3.wav,None,1000,30,1537544,317,25.285
A,2,1513533,silence.wav,None,1000,30,1539544,332,27.285
A,2,1513533,sinestep3.wav,None,1000,30,1541544,341,29.285
A,2,1513533,sinestep5_catch.wav,1,75,30,1543543,338,31.285
A,2,1513533,sinestep1.wav,None,1000,30,1545543,1276,33.285
A,2,1513533,sinestep1.wav,None,1000,30,1547543,320,35.285
A,2,1513533,sinestep5.wav,None,1000,30,1549543,332,37.285
A,2,1513533,vowelstep3.wav,None,1000,30,1551544,333,39.285
A,2,1513533,vowelstep5.wav,None,1000,30,1553544,341,41.285
A,2,1513533,vowelstep3.wav,None,1000,30,1555544,341,43.285
A,2,1513533,vowelstep1.wav,None,1000,30,1557544,340,45.285
A,2,1513533,vowelstep3.wav,None,1000,30,1559544,351,47.285
A,2,1513533,sinestep3.wav,None,1000,30,1561544,332,49.285
A,2,1513533,sinestep7.wav,None,1000,30,1563544,327,51.285
A,2,1513533,sinestep5.wav,None,1000,30,1565544,330,53.285
A,2,1513533,vowelstep7_catch.wav,1,76,30,1567543,331,55.285
A,2,1513533,silence.wav,None,1000,30,1569544,1261,57.285
A,2,1513533,vowelstep3.wav,None,1000,30,1571544,340,59.285
A,2,1513533,vowelstep1.wav,None,1000,30,1573544,350,61.285
A,2,1513533,silence.wav,None,1000,30,1575544,318,63.285
A,2,1513533,sinestep3.wav,None,1000,30,1577544,330,65.285
A,2,1513533,sinestep7.wav,None,1000,30,1579544,330,67.285
A,2,1513533,sinestep5.wav,None,1000,30,1581544,339,69.285
A,2,1513533,sinestep5.wav,None,1000,30,1583544,337,71.285
A,2,1513533,sinestep7.wav,None,1000,30,1585544,340,73.285
A,2,1513533,sinestep1.wav,None,1000,30,1587545,350,75.285
A,2,1513533,sinestep5.wav,None,1000,30,1589545,318,77.285
A,2,1513533,vowelstep1.wav,None,1000,30,1591544,331,79.285
A,2,1513533,sinestep1.wav,None,1000,30,1593544,330,81.285
A,2,1513533,vowelstep5.wav,None,1000,30,1595544,340,83.285
A,2,1513533,sinestep1.wav,None,1000,30,1597544,340,85.285
A,2,1513533,silence.wav,None,1000,30,1599544,337,87.285
A,2,1513533,vowelstep1.wav,None,1000,30,1601544,340,89.285
A,2,1513533,sinestep3.wav,None,1000,30,1603544,349,91.285
A,2,1513533,vowelstep5.wav,None,1000,30,1605545,328,93.285
A,2,1513533,vowelstep5.wav,None,1000,30,1607545,329,95.285
A,2,1513533,vowelstep5.wav,None,1000,30,1609545,327,97.285
A,2,1513533,vowelstep7.wav,None,1000,30,1611545,339,99.285
A,2,1513533,vowelstep3.wav,None,1000,30,1613544,339,101.285
A,2,1513533,sinestep1.wav,None,1000,30,1615544,339,103.285
A,2,1513533,sinestep1.wav,None,1000,30,1617544,319,105.285
A,2,1513533,vowelstep7.wav,None,1000,30,1619544,328,107.285
A,2,1513533,vowelstep1.wav,None,1000,30,1621545,326,109.285
A,2,1513533,vowelstep7.wav,None,1000,30,1623545,337,111.285
A,2,1513533,silence.wav,None,1000,30,1625545,338,113.285
A,2,1513533,sinestep1.wav,None,1000,30,1627545,339,115.285
A,2,1513533,vowelstep1.wav,None,1000,30,1629545,335,117.285
A,2,1513533,silence.wav,None,1000,30,1631545,346,119.285
A,2,1513533,vowelstep1.wav,None,1000,30,1633545,328,121.285
A,2,1513533,vowelstep3.wav,None,1000,30,1635545,325,123.285
A,2,1513533,vowelstep1.wav,None,1000,30,1637544,327,125.285
A,2,1513533,sinestep7.wav,None,1000,30,1639545,337,127.285
A,2,1513533,silence.wav,None,1000,30,1641545,337,129.285
A,2,1513533,vowelstep1.wav,None,1000,30,1643545,337,131.285
A,2,1513533,silence.wav,None,1000,30,1645545,313,133.285
A,2,1513533,sinestep7.wav,None,1000,30,1647545,323,135.285
A,2,1513533,vowelstep5.wav,None,1000,30,1649545,326,137.285
A,2,1513533,sinestep7.wav,None,1000,30,1651545,323,139.285
A,2,1513533,sinestep3.wav,None,1000,30,1653545,337,141.285
A,2,1513533,vowelstep5.wav,None,1000,30,1655545,337,143.285
A,2,1513533,silence.wav,None,1000,30,1657546,337,145.285
A,2,1513533,sinestep3.wav,None,1000,30,1659546,345,147.285
A,2,1513533,sinestep5.wav,None,1000,30,1661545,320,149.285
A,2,1513533,sinestep3.wav,None,1000,30,1663545,346,151.285
A,2,1513533,vowelstep3.wav,None,1000,30,1665545,352,153.285
A,2,1513533,sinestep3.wav,None,1000,30,1667545,336,155.285
A,2,1513533,vowelstep7_catch.wav,1,160,30,1669545,335,157.285
A,2,1513533,vowelstep7.wav,None,1000,30,1671545,1175,159.285
A,2,1513533,vowelstep5.wav,None,1000,30,1673545,345,161.285
A,2,1513533,sinestep5.wav,None,1000,30,1675546,343,163.285
A,2,1513533,silence.wav,None,1000,30,1677546,344,165.285
A,2,1513533,sinestep5.wav,None,1000,30,1679546,355,167.285
A,2,1513533,vowelstep5_catch.wav,1,104,30,1681546,322,169.285
A,2,1513533,silence.wav,None,1000,30,1683545,1230,171.285
A,2,1513533,sinestep7.wav,None,1000,30,1685545,335,173.285
A,2,1513533,sinestep5.wav,None,1000,30,1687545,344,175.285
A,2,1513533,sinestep7.wav,None,1000,30,1689545,345,177.285
A,2,1513533,vowelstep3.wav,None,1000,30,1691546,343,179.285
A,2,1513533,sinestep5.wav,None,1000,30,1693546,344,181.285
A,2,1513533,vowelstep1.wav,None,1000,30,1695546,350,183.285
A,2,1513533,vowelstep5.wav,None,1000,30,1697546,333,185.285
A,2,1513533,sinestep5.wav,None,1000,30,1699546,333,187.285
A,2,1513533,vowelstep1.wav,None,1000,30,1701546,333,189.285
A,2,1513533,silence.wav,None,1000,30,1703546,343,191.285
A,2,1513533,sinestep1.wav,None,1000,30,1705546,344,193.285
A,2,1513533,vowelstep5.wav,None,1000,30,1707545,343,195.285
A,2,1513533,sinestep3.wav,None,1000,30,1709546,318,197.285
A,2,1513533,silence.wav,None,1000,30,1711546,332,199.285
A,2,1513533,vowelstep3.wav,None,1000,30,1713546,327,201.285
A,2,1513533,vowelstep3_catch.wav,1,114,30,1715546,343,203.285
A,2,1513533,vowelstep5.wav,None,1000,30,1717546,1227,205.285
A,2,1513533,vowelstep1_catch.wav,1,71,30,1719546,343,207.285
A,2,1513533,silence.wav,None,1000,30,1721546,1272,209.285
A,2,1513533,sinestep3.wav,None,1000,30,1723546,332,211.285
A,2,1513533,vowelstep5.wav,None,1000,30,1725546,333,213.285
A,2,1513533,silence.wav,None,1000,30,1727547,333,215.285
A,2,1513533,sinestep5.wav,None,1000,30,1729546,332,217.285
A,2,1513533,vowelstep7.wav,None,1000,30,1731546,342,219.285
A,2,1513533,silence.wav,None,1000,30,1733546,341,221.285
A,2,1513533,vowelstep3.wav,None,1000,30,1735546,351,223.285
A,2,1513533,sinestep7.wav,None,1000,30,1737546,350,225.285
A,2,1513533,silence.wav,None,1000,30,1739546,331,227.285
A,2,1513533,vowelstep3.wav,None,1000,30,1741546,328,229.285
A,2,1513533,vowelstep5.wav,None,1000,30,1743547,331,231.285
A,2,1513533,vowelstep7.wav,None,1000,30,1745547,339,233.285
A,2,1513533,vowelstep3.wav,None,1000,30,1747547,341,235.285
A,2,1513533,vowelstep5.wav,None,1000,30,1749547,340,237.285
A,2,1513533,sinestep1_catch.wav,1,69,30,1751547,350,239.285
A,2,1513533,sinestep3.wav,None,1000,30,1753546,1257,241.285
A,2,1513533,sinestep1.wav,None,1000,30,1755546,331,243.285
A,2,1513533,sinestep3_catch.wav,1,188,30,1757546,325,245.285
A,2,1513533,sinestep7.wav,None,1000,30,1759546,1149,247.285
A,2,1513533,vowelstep1.wav,None,1000,30,1761547,337,249.285
A,2,1513533,sinestep3.wav,None,1000,30,1763547,339,251.285
A,2,1513533,vowelstep7.wav,None,1000,30,1765547,346,253.285
A,2,1513533,silence.wav,None,1000,30,1767547,330,255.285
A,2,1513533,sinestep1.wav,None,1000,30,1769547,327,257.285
A,2,1513533,silence.wav,None,1000,30,1771547,329,259.285
A,2,1513533,vowelstep5.wav,None,1000,30,1773547,339,261.285
A,2,1513533,sinestep5_catch.wav,1,144,30,1775547,332,263.285
A,2,1513533,vowelstep7.wav,None,1000,30,1777546,1195,265.285
A,2,1513533,sinestep3.wav,None,1000,30,1779547,348,267.285
A,2,1513533,vowelstep1.wav,None,1000,30,1781547,318,269.285
A,2,1513533,vowelstep3.wav,None,1000,30,1783547,327,271.285
A,2,1513533,sinestep7_catch.wav,1,159,30,1785547,325,273.285
A,2,1513533,silence.wav,None,1000,30,1787547,1178,275.285
A,2,1513533,vowelstep7.wav,None,1000,30,1789547,335,277.285
A,2,1513533,sinestep7.wav,None,1000,30,1791547,339,279.285
A,2,1513533,sinestep1.wav,None,1000,30,1793547,343,281.285
A,2,1513533,vowelstep7.wav,None,1000,30,1795547,326,283.285
A,2,1513533,sinestep5.wav,None,1000,30,1797548,324,285.285
A,2,1513533,sinestep5.wav,None,1000,30,1799547,325,287.285
A,2,1513533,sinestep7_catch.wav,1,233,30,1801547,337,289.285
A,2,1513533,sinestep5.wav,None,1000,30,1803547,1103,291.285
A,2,1513533,silence.wav,None,1000,30,1805547,333,293.285
A,2,1513533,vowelstep3.wav,None,1000,30,1807547,346,295.285
A,2,1513533,silence.wav,None,1000,30,1809547,315,297.285
A,2,1513533,vowelstep1.wav,None,1000,30,1811547,325,299.285
A,2,1513533,sinestep1.wav,None,1000,30,1813548,322,301.285
A,2,1513533,sinestep7.wav,None,1000,30,1815548,336,303.285
A,2,1513533,vowelstep7.wav,None,1000,30,1817548,336,305.285
A,2,1513533,sinestep1_catch.wav,1,159,30,1819548,336,307.285
A,2,1513533,silence.wav,None,1000,30,1821548,1176,309.285
A,2,1513533,silence.wav,None,1000,30,1823547,321,311.285
A,2,1513533,vowelstep7.wav,None,1000,30,1825547,324,313.285
A,2,1513533,sinestep1.wav,None,1000,30,1827547,323,315.285
A,2,1513533,vowelstep7.wav,None,1000,30,1829547,336,317.285
A,2,1513533,vowelstep7.wav,None,1000,30,1831548,336,319.285
F,3,1893424,sinestep1.wav,None,1000,30,1893432,0,1.285
F,3,1893424,vowelstep5.wav,None,1000,30,1895432,353,3.285
F,3,1893424,vowelstep3.wav,None,1000,30,1897432,323,5.285
F,3,1893424,sinestep5.wav,None,1000,30,1899432,330,7.285
F,3,1893424,vowelstep7.wav,None,1000,30,1901432,334,9.285
F,3,1893424,silence.wav,None,1000,30,1903432,329,11.285
F,3,1893424,vowelstep5.wav,None,1000,30,1905432,342,13.285
F,3,1893424,sinestep3.wav,None,1000,30,1907432,342,15.285
F,3,1893424,sinestep3.wav,None,1000,30,1909432,341,17.285
F,3,1893424,silence.wav,None,1000,30,1911432,332,19.285
F,3,1893424,vowelstep7.wav,None,1000,30,1913432,332,21.285
F,3,1893424,vowelstep7.wav,None,1000,30,1915432,328,23.285
F,3,1893424,vowelstep1_catch.wav,1,169,30,1917432,332,25.285
F,3,1893424,vowelstep3_catch.wav,1,76,30,1919433,1170,27.285
F,3,1893424,vowelstep1.wav,None,1000,30,1921433,1264,29.285
F,3,1893424,sinestep5.wav,None,1000,30,1923432,351,31.285
F,3,1893424,sinestep5.wav,None,1000,30,1925432,321,33.285
F,3,1893424,vowelstep7.wav,None,1000,30,1927432,330,35.285
F,3,1893424,sinestep3.wav,None,1000,30,1929432,327,37.285
F,3,1893424,sinestep7.wav,None,1000,30,1931432,339,39.285
F,3,1893424,vowelstep5_catch.wav,1,140,30,1933432,338,41.285
F,3,1893424,sinestep1.wav,None,1000,30,1935432,1200,43.285
F,3,1893424,vowelstep7_catch.wav,1,39,30,1937433,339,45.285
F,3,1893424,vowelstep3.wav,None,1000,30,1939433,1280,47.285
F,3,1893424,sinestep1.wav,None,1000,30,1941433,330,49.285
F,3,1893424,sinestep7.wav,None,1000,30,1943433,330,51.285
F,3,1893424,silence.wav,None,1000,30,1945433,336,53.285
F,3,1893424,sinestep7.wav,None,1000,30,1947432,340,55.285
F,3,1893424,vowelstep1.wav,None,1000,30,1949432,335,57.285
F,3,1893424,vowelstep3.wav,None,1000,30,1951432,339,59.285
F,3,1893424,vowelstep7_catch.wav,1,149,30,1953433,349,61.285
F,3,1893424,sinestep5.wav,None,1000,30,1955433,1179,63.285
F,3,1893424,sinestep3.wav,None,1000,30,1957433,329,65.285
F,3,1893424,vowelstep3.wav,None,1000,30,1959433,329,67.285
F,3,1893424,silence.wav,None,1000,30,1961433,335,69.285
F,3,1893424,vowelstep1.wav,None,1000,30,1963433,340,71.285
F,3,1893424,vowelstep1.wav,None,1000,30,1965433,334,73.285
F,3,1893424,vowelstep5_catch.wav,1,215,30,1967433,318,75.285
F,3,1893424,silence.wav,None,1000,30,1969433,1113,77.285
F,3,1893424,vowelstep3.wav,None,1000,30,1971433,326,79.285
F,3,1893424,vowelstep5.wav,None,1000,30,1973433,348,81.285
F,3,1893424,vowelstep3_catch.wav,1,416,30,1975433,338,83.285
F,3,1893424,vowelstep3.wav,None,1000,30,1977433,915,85.285
F,3,1893424,sinestep7.wav,None,1000,30,1979433,338,87.285
F,3,1893424,vowelstep1.wav,None,1000,30,1981433,346,89.285
F,3,1893424,sinestep1.wav,None,1000,30,1983433,348,91.285
F,3,1893424,vowelstep1_catch.wav,1,152,30,1985433,348,93.285
F,3,1893424,vowelstep5.wav,None,1000,30,1987433,1174,95.285
F,3,1893424,sinestep7.wav,None,1000,30,1989434,338,97.285
F,3,1893424,vowelstep7.wav,None,1000,30,1991434,337,99.285
F,3,1893424,vowelstep3.wav,None,1000,30,1993433,337,101.285
F,3,1893424,sinestep3.wav,None,1000,30,1995433,347,103.285
F,3,1893424,silence.wav,None,1000,30,1997433,347,105.285
F,3,1893424,sinestep1.wav,None,1000,30,1999433,347,107.285
F,3,1893424,sinestep1.wav,None,1000,30,2001433,357,109.285
F,3,1893424,silence.wav,None,1000,30,2003433,337,111.285
F,3,1893424,sinestep7.wav,None,1000,30,2005433,336,113.285
F,3,1893424,vowelstep3.wav,None,1000,30,2007434,334,115.285
F,3,1893424,sinestep3.wav,None,1000,30,2009434,343,117.285
F,3,1893424,vowelstep3.wav,None,1000,30,2011434,344,119.285
F,3,1893424,vowelstep7.wav,None,1000,30,2013434,346,121.285
F,3,1893424,vowelstep7.wav,None,1000,30,2015434,353,123.285
F,3,1893424,vowelstep5.wav,None,1000,30,2017433,325,125.285
F,3,1893424,sinestep1.wav,None,1000,30,2019433,335,127.285
F,3,1893424,silence.wav,None,1000,30,2021433,335,129.285
F,3,1893424,sinestep1.wav,None,1000,30,2023434,345,131.285
F,3,1893424,sinestep3.wav,None,1000,30,2025434,341,133.285
F,3,1893424,sinestep1_catch.wav,1,100,30,2027434,345,135.285
F,3,1893424,sinestep3.wav,None,1000,30,2029434,1248,137.285
F,3,1893424,sinestep3.wav,None,1000,30,2031434,325,139.285
F,3,1893424,silence.wav,None,1000,30,2033434,333,141.285
F,3,1893424,silence.wav,None,1000,30,2035434,334,143.285
F,3,1893424,sinestep7.wav,None,1000,30,2037434,345,145.285
F,3,1893424,sinestep5.wav,None,1000,30,2039433,341,147.285
F,3,1893424,vowelstep1.wav,None,1000,30,2041434,341,149.285
F,3,1893424,sinestep7.wav,None,1000,30,2043434,344,151.285
F,3,1893424,silence.wav,None,1000,30,2045434,329,153.285
F,3,1893424,sinestep3_catch.wav,1,42,30,2047434,333,155.285
F,3,1893424,vowelstep5.wav,None,1000,30,2049434,1285,157.285
F,3,1893424,sinestep3.wav,None,1000,30,2051434,334,159.285
F,3,1893424,vowelstep5.wav,None,1000,30,2053434,340,161.285
F,3,1893424,sinestep3.wav,None,1000,30,2055434,344,163.285
F,3,1893424,vowelstep3.wav,None,1000,30,2057434,340,165.285
F,3,1893424,vowelstep1.wav,None,1000,30,2059435,325,167.285
F,3,1893424,sinestep5.wav,None,1000,30,2061435,326,169.285
F,3,1893424,vowelstep5.wav,None,1000,30,2063434,333,171.285
F,3,1893424,vowelstep1.wav,None,1000,30,2065434,331,173.285
F,3,1893424,vowelstep1.wav,None,1000,30,2067434,342,175.285
F,3,1893424,sinestep7.wav,None,1000,30,2069434,342,177.285
F,3,1893424,vowelstep1.wav,None,1000,30,2071434,342,179.285
F,3,1893424,sinestep5.wav,None,1000,30,2073434,345,181.285
F,3,1893424,vowelstep7.wav,None,1000,30,2075434,333,183.285
F,3,1893424,sinestep1.wav,None,1000,30,2077435,326,185.285
F,3,1893424,vowelstep7.wav,None,1000,30,2079435,332,187.285
F,3,1893424,sinestep5.wav,None,1000,30,2081435,341,189.285
F,3,1893424,vowelstep5.wav,None,1000,30,2083435,337,191.285
F,3,1893424,silence.wav,None,1000,30,2085435,351,193.285
F,3,1893424,sinestep7.wav,None,1000,30,2087434,351,195.285
F,3,1893424,vowelstep5.wav,None,1000,30,2089434,328,197.285
F,3,1893424,vowelstep7.wav,None,1000,30,2091434,332,199.285
F,3,1893424,silence.wav,None,1000,30,2093435,330,201.285
F,3,1893424,vowelstep1.wav,None,1000,30,2095435,341,203.285
F,3,1893424,vowelstep7.wav,None,1000,30,2097435,340,205.285
F,3,1893424,vowelstep7.wav,None,1000,30,2099435,340,207.285
F,3,1893424,vowelstep3.wav,None,1000,30,2101435,351,209.285
F,3,1893424,vowelstep3.wav,None,1000,30,2103435,330,211.285
F,3,1893424,silence.wav,None,1000,30,2105435,327,213.285
F,3,1893424,sinestep7.wav,None,1000,30,2107435,330,215.285
F,3,1893424,sinestep1.wav,None,1000,30,2109434,340,217.285
F,3,1893424,silence.wav,None,1000,30,2111435,341,219.285
F,3,1893424,vowelstep1.wav,None,1000,30,2113435,339,221.285
F,3,1893424,sinestep5_catch.wav,1,96,30,2115435,349,223.285
F,3,1893424,sinestep1.wav,None,1000,30,2117435,1232,225.285
F,3,1893424,silence.wav,None,1000,30,2119435,330,227.285
F,3,1893424,sinestep7.wav,None,1000,30,2121435,327,229.285
F,3,1893424,sinestep7.wav,None,1000,30,2123435,326,231.285
F,3,1893424,silence.wav,None,1000,30,2125435,339,233.285
F,3,1893424,vowelstep5.wav,None,1000,30,2127435,338,235.285
F,3,1893424,sinestep7.wav,None,1000,30,2129436,349,237.285
F,3,1893424,sinestep5.wav,None,1000,30,2131436,318,239.285
F,3,1893424,sinestep5.wav,None,1000,30,2133435,295,241.285
F,3,1893424,silence.wav,None,1000,30,2135435,326,243.285
F,3,1893424,vowelstep3.wav,None,1000,30,2137435,335,245.285
F,3,1893424,vowelstep3.wav,None,1000,30,2139435,338,247.285
F,3,1893424,silence.wav,None,1000,30,2141435,333,249.285
F,3,1893424,sinestep1.wav,None,1000,30,2143435,348,251.285
F,3,1893424,sinestep1.wav,None,1000,30,2145435,328,253.285
F,3,1893424,vowelstep5.wav,None,1000,30,2147436,328,255.285
F,3,1893424,silence.wav,None,1000,30,2149436,327,257.285
F,3,1893424,sinestep5.wav,None,1000,30,2151436,328,259.285
F,3,1893424,sinestep5.wav,None,1000,30,2153436,334,261.285
F,3,1893424,sinestep5.wav,None,1000,30,2155435,338,263.285
F,3,1893424,sinestep7.wav,None,1000,30,2157435,346,265.285
F,3,1893424,sinestep7_catch.wav,1,140,30,2159435,327,267.285
F,3,1893424,sinestep7_catch.wav,1,72,30,2161435,1186,269.285
F,3,1893424,sinestep1.wav,None,1000,30,2163436,1254,271.285
F,3,1893424,vowelstep7.wav,None,1000,30,2165436,336,273.285
F,3,1893424,sinestep3.wav,None,1000,30,2167436,337,275.285
F,3,1893424,sinestep3.wav,None,1000,30,2169436,336,277.285
F,3,1893424,silence.wav,None,1000,30,2171436,336,279.285
F,3,1893424,sinestep5_catch.wav,1,273,30,2173436,316,281.285
F,3,1893424,sinestep5.wav,None,1000,30,2175436,1052,283.285
F,3,1893424,silence.wav,None,1000,30,2177436,326,285.285
F,3,1893424,vowelstep5.wav,None,1000,30,2179435,336,287.285
F,3,1893424,silence.wav,None,1000,30,2181436,336,289.285
F,3,1893424,sinestep1.wav,None,1000,30,2183436,336,291.285
F,3,1893424,sinestep3.wav,None,1000,30,2185436,335,293.285
F,3,1893424,vowelstep3.wav,None,1000,30,2187436,322,295.285
F,3,1893424,silence.wav,None,1000,30,2189436,325,297.285
F,3,1893424,sinestep5.wav,None,1000,30,2191436,322,299.285
F,3,1893424,vowelstep5.wav,None,1000,30,2193436,325,301.285
F,3,1893424,vowelstep5.wav,None,1000,30,2195436,335,303.285
F,3,1893424,vowelstep1.wav,None,1000,30,2197436,335,305.285
F,3,1893424,sinestep3.wav,None,1000,30,2199437,336,307.285
F,3,1893424,silence.wav,None,1000,30,2201437,311,309.285
F,3,1893424,sinestep3_catch.wav,1,168,30,2203436,325,311.285
F,3,1893424,vowelstep1.wav,None,1000,30,2205436,1173,313.285
F,3,1893424,vowelstep7.wav,None,1000,30,2207436,354,315.285
F,3,1893424,vowelstep7.wav,None,1000,30,2209436,334,317.285
F,3,1893424,vowelstep1.wav,None,1000,30,2211436,334,319.285
E,4,2278530,vowelstep7.wav,None,1000,30,2278537,0,1.285
E,4,2278530,sinestep3.wav,None,1000,30,2280537,336,3.285
E,4,2278530,sinestep5.wav,None,1000,30,2282537,344,5.285
E,4,2278530,sinestep1.wav,None,1000,30,2284537,343,7.285
E,4,2278530,sinestep5.wav,None,1000,30,2286538,346,9.285
E,4,2278530,silence.wav,None,1000,30,2288538,324,11.285
E,4,2278530,vowelstep1.wav,None,1000,30,2290538,335,13.285
E,4,2278530,vowelstep7.wav,None,1000,30,2292538,335,15.285
E,4,2278530,vowelstep1.wav,None,1000,30,2294537,335,17.285
E,4,2278530,sinestep1_catch.wav,1,119,30,2296537,345,19.285
E,4,2278530,vowelstep5.wav,None,1000,30,2298537,1221,21.285
E,4,2278530,sinestep5.wav,None,1000,30,2300537,345,23.285
E,4,2278530,vowelstep5.wav,None,1000,30,2302537,355,25.285
E,4,2278530,vowelstep3.wav,None,1000,30,2304538,335,27.285
E,4,2278530,sinestep1.wav,None,1000,30,2306538,334,29.285
E,4,2278530,vowelstep5.wav,None,1000,30,2308538,334,31.285
E,4,2278530,silence.wav,None,1000,30,2310538,335,33.285
E,4,2278530,silence.wav,None,1000,30,2312538,344,35.285
E,4,2278530,sinestep3.wav,None,1000,30,2314538,344,37.285
E,4,2278530,sinestep3.wav,None,1000,30,2316538,354,39.285
E,4,2278530,sinestep3.wav,None,1000,30,2318537,334,41.285
E,4,2278530,sinestep1.wav,None,1000,30,2320538,333,43.285
E,4,2278530,vowelstep1.wav,None,1000,30,2322538,333,45.285
E,4,2278530,sinestep1.wav,None,1000,30,2324538,343,47.285
E,4,2278530,vowelstep7.wav,None,1000,30,2326538,342,49.285
E,4,2278530,vowelstep5.wav,None,1000,30,2328538,342,51.285
E,4,2278530,sinestep7.wav,None,1000,30,2330538,353,53.285
E,4,2278530,sinestep1.wav,None,1000,30,2332538,333,55.285
E,4,2278530,vowelstep5.wav,None,1000,30,2334538,333,57.285
E,4,2278530,sinestep3.wav,None,1000,30,2336538,333,59.285
E,4,2278530,vowelstep1.wav,None,1000,30,2338539,332,61.285
E,4,2278530,vowelstep5.wav,None,1000,30,2340539,342,63.285
E,4,2278530,vowelstep3.wav,None,1000,30,2342538,342,65.285
E,4,2278530,sinestep1.wav,None,1000,30,2344538,351,67.285
E,4,2278530,vowelstep3.wav,None,1000,30,2346538,318,69.285
E,4,2278530,silence.wav,None,1000,30,2348538,332,71.285
E,4,2278530,vowelstep3.wav,None,1000,30,2350538,331,73.285
E,4,2278530,sinestep3_catch.wav,1,126,30,2352538,342,75.285
E,4,2278530,sinestep3.wav,None,1000,30,2354538,1215,77.285
E,4,2278530,vowelstep3.wav,None,1000,30,2356539,342,79.285
E,4,2278530,vowelstep7.wav,None,1000,30,2358539,351,81.285
E,4,2278530,silence.wav,None,1000,30,2360539,331,83.285
E,4,2278530,sinestep3.wav,None,1000,30,2362539,331,85.285
E,4,2278530,silence.wav,None,1000,30,2364538,330,87.285
E,4,2278530,sinestep1.wav,None,1000,30,2366538,341,89.285
E,4,2278530,sinestep5_catch.wav,1,52,30,2368538,338,91.285
E,4,2278530,vowelstep3.wav,None,1000,30,2370538,1288,93.285
E,4,2278530,sinestep5.wav,None,1000,30,2372538,349,95.285
E,4,2278530,vowelstep7.wav,None,1000,30,2374539,346,97.285
E,4,2278530,sinestep1.wav,None,1000,30,2376539,330,99.285
E,4,2278530,sinestep5.wav,None,1000,30,2378539,327,101.285
E,4,2278530,sinestep5.wav,None,1000,30,2380539,327,103.285
E,4,2278530,vowelstep7.wav,None,1000,30,2382539,336,105.285
E,4,2278530,vowelstep3.wav,None,1000,30,2384539,339,107.285
E,4,2278530,vowelstep7.wav,None,1000,30,2386539,338,109.285
E,4,2278530,sinestep5.wav,None,1000,30,2388538,319,111.285
E,4,2278530,vowelstep3.wav,None,1000,30,2390539,329,113.285
E,4,2278530,vowelstep7.wav,None,1000,30,2392539,326,115.285
E,4,2278530,sinestep3.wav,None,1000,30,2394539,337,117.285
E,4,2278530,vowelstep7.wav,None,1000,30,2396539,335,119.285
E,4,2278530,silence.wav,None,1000,30,2398539,338,121.285
E,4,2278530,silence.wav,None,1000,30,2400539,337,123.285
E,4,2278530,sinestep7.wav,None,1000,30,2402539,328,125.285
E,4,2278530,sinestep7_catch.wav,1,64,30,2404539,326,127.285
E,4,2278530,sinestep7.wav,None,1000,30,2406539,1262,129.285
E,4,2278530,silence.wav,None,1000,30,2408540,328,131.285
E,4,2278530,sinestep7_catch.wav,1,53,30,2410539,337,133.285
E,4,2278530,sinestep7.wav,None,1000,30,2412539,1278,135.285
E,4,2278530,sinestep5_catch.wav,1,100,30,2414539,338,137.285
E,4,2278530,sinestep1.wav,None,1000,30,2416539,1197,139.285
E,4,2278530,sinestep1.wav,None,1000,30,2418539,327,141.285
E,4,2278530,sinestep1.wav,None,1000,30,2420539,327,143.285
E,4,2278530,sinestep3.wav,None,1000,30,2422539,327,145.285
E,4,2278530,vowelstep5.wav,None,1000,30,2424539,337,147.285
E,4,2278530,silence.wav,None,1000,30,2426540,337,149.285
E,4,2278530,sinestep3_catch.wav,1,65,30,2428540,333,151.285
E,4,2278530,silence.wav,None,1000,30,2430540,1250,153.285
E,4,2278530,sinestep7.wav,None,1000,30,2432540,324,155.285
E,4,2278530,sinestep5.wav,None,1000,30,2434539,323,157.285
E,4,2278530,silence.wav,None,1000,30,2436539,357,159.285
E,4,2278530,vowelstep5.wav,None,1000,30,2438539,335,161.285
E,4,2278530,vowelstep1.wav,None,1000,30,2440539,336,163.285
E,4,2278530,vowelstep3.wav,None,1000,30,2442539,336,165.285
E,4,2278530,sinestep5.wav,None,1000,30,2444540,342,167.285
E,4,2278530,sinestep7.wav,None,1000,30,2446540,345,169.285
E,4,2278530,vowelstep1.wav,None,1000,30,2448540,344,171.285
E,4,2278530,vowelstep7.wav,None,1000,30,2450540,355,173.285
E,4,2278530,sinestep3.wav,None,1000,30,2452540,335,175.285
E,4,2278530,silence.wav,None,1000,30,2454540,335,177.285
E,4,2278530,sinestep1_catch.wav,1,120,30,2456540,336,179.285
E,4,2278530,sinestep7.wav,None,1000,30,2458539,1222,181.285
E,4,2278530,vowelstep1.wav,None,1000,30,2460540,342,183.285
E,4,2278530,sinestep5.wav,None,1000,30,2462540,345,185.285
E,4,2278530,sinestep5.wav,None,1000,30,2464540,342,187.285
E,4,2278530,vowelstep1.wav,None,1000,30,2466540,324,189.285
E,4,2278530,sinestep7.wav,None,1000,30,2468540,333,191.285
E,4,2278530,sinestep3.wav,None,1000,30,2470540,335,193.285
E,4,2278530,sinestep7.wav,None,1000,30,2472540,334,195.285
E,4,2278530,silence.wav,None,1000,30,2474540,340,197.285
E,4,2278530,vowelstep1.wav,None,1000,30,2476540,342,199.285
E,4,2278530,sinestep1.wav,None,1000,30,2478541,351,201.285
E,4,2278530,vowelstep1.wav,None,1000,30,2480540,323,203.285
E,4,2278530,vowelstep1.wav,None,1000,30,2482540,332,205.285
E,4,2278530,vowelstep1_catch.wav,1,89,30,2484540,333,207.285
E,4,2278530,vowelstep1.wav,None,1000,30,2486540,1252,209.285
E,4,2278530,vowelstep1.wav,None,1000,30,2488540,340,211.285
E,4,2278530,silence.wav,None,1000,30,2490540,343,213.285
E,4,2278530,sinestep7.wav,None,1000,30,2492540,343,215.285
E,4,2278530,vowelstep7.wav,None,1000,30,2494540,332,217.285
E,4,2278530,vowelstep3_catch.wav,1,293,30,2496541,333,219.285
E,4,2278530,vowelstep5.wav,None,1000,30,2498541,1039,221.285
E,4,2278530,sinestep3.wav,None,1000,30,2500541,332,223.285
E,4,2278530,silence.wav,None,1000,30,2502541,342,225.285
E,4,2278530,sinestep1.wav,None,1000,30,2504540,342,227.285
E,4,2278530,sinestep5.wav,None,1000,30,2506540,353,229.285
E,4,2278530,sinestep5.wav,None,1000,30,2508540,319,231.285
E,4,2278530,sinestep3.wav,None,1000,30,2510540,332,233.285
E,4,2278530,sinestep5.wav,None,1000,30,2512540,332,235.285
E,4,2278530,vowelstep3.wav,None,1000,30,2514541,331,237.285
E,4,2278530,sinestep7.wav,None,1000,30,2516541,340,239.285
E,4,2278530,sinestep7.wav,None,1000,30,2518541,340,241.285
E,4,2278530,silence.wav,None,1000,30,2520541,341,243.285
E,4,2278530,sinestep3.wav,None,1000,30,2522541,340,245.285
E,4,2278530,sinestep3.wav,None,1000,30,2524541,331,247.285
E,4,2278530,vowelstep3.wav,None,1000,30,2526541,326,249.285
E,4,2278530,silence.wav,None,1000,30,2528540,332,251.285
E,4,2278530,sinestep7.wav,None,1000,30,2530541,339,253.285
E,4,2278530,silence.wav,None,1000,30,2532541,340,255.285
E,4,2278530,vowelstep7.wav,None,1000,30,2534541,340,257.285
E,4,2278530,vowelstep3.wav,None,1000,30,2536541,350,259.285
E,4,2278530,silence.wav,None,1000,30,2538541,330,261.285
E,4,2278530,vowelstep3.wav,None,1000,30,2540541,326,263.285
E,4,2278530,vowelstep1.wav,None,1000,30,2542541,329,265.285
E,4,2278530,vowelstep5.wav,None,1000,30,2544541,338,267.285
E,4,2278530,silence.wav,None,1000,30,2546541,340,269.285
E,4,2278530,vowelstep3.wav,None,1000,30,2548542,339,271.285
E,4,2278530,sinestep1.wav,None,1000,30,2550541,349,273.285
E,4,2278530,vowelstep5_catch.wav,1,130,30,2552541,328,275.285
E,4,2278530,sinestep7.wav,None,1000,30,2554541,1197,277.285
E,4,2278530,sinestep7.wav,None,1000,30,2556541,328,279.285
E,4,2278530,vowelstep7.wav,None,1000,30,2558541,335,281.285
E,4,2278530,silence.wav,None,1000,30,2560541,339,283.285
E,4,2278530,sinestep5.wav,None,1000,30,2562541,337,285.285
E,4,2278530,silence.wav,None,1000,30,2564541,338,287.285
E,4,2278530,silence.wav,None,1000,30,2566542,329,289.285
E,4,2278530,vowelstep5.wav,None,1000,30,2568542,327,291.285
E,4,2278530,vowelstep5.wav,None,1000,30,2570542,324,293.285
E,4,2278530,silence.wav,None,1000,30,2572542,327,295.285
E,4,2278530,vowelstep5.wav,None,1000,30,2574541,336,297.285
E,4,2278530,vowelstep7_catch.wav,1,209,30,2576541,337,299.285
E,4,2278530,vowelstep7_catch.wav,1,230,30,2578541,1137,301.285
E,4,2278530,vowelstep5.wav,None,1000,30,2580541,1087,303.285
E,4,2278530,sinestep1.wav,None,1000,30,2582541,327,305.285
E,4,2278530,vowelstep3.wav,None,1000,30,2584542,327,307.285
E,4,2278530,vowelstep5_catch.wav,1,297,30,2586542,333,309.285
E,4,2278530,vowelstep7.wav,None,1000,30,2588542,1040,311.285
E,4,2278530,vowelstep5.wav,None,1000,30,2590542,332,313.285
E,4,2278530,vowelstep7.wav,None,1000,30,2592542,336,315.285
E,4,2278530,vowelstep1.wav,None,1000,30,2594542,324,317.285
E,4,2278530,vowelstep3_catch.wav,None,1000,30,2596541,322,319.285
C,5,2656906,sinestep1.wav,None,1000,30,2656910,0,1.285
C,5,2656906,vowelstep1.wav,None,1000,30,2658909,328,3.285
C,5,2656906,sinestep1.wav,None,1000,30,2660926,339,5.285
C,5,2656906,sinestep1.wav,None,1000,30,2662926,315,7.285
C,5,2656906,vowelstep1.wav,None,1000,30,2664926,318,9.285
C,5,2656906,sinestep1.wav,None,1000,30,2666909,317,11.285
C,5,2656906,sinestep7.wav,None,1000,30,2668909,348,13.285
C,5,2656906,vowelstep7.wav,None,1000,30,2670910,348,15.285
C,5,2656906,vowelstep3.wav,None,1000,30,2672910,337,17.285
C,5,2656906,vowelstep5.wav,None,1000,30,2674910,338,19.285
C,5,2656906,silence.wav,None,1000,30,2676910,334,21.285
C,5,2656906,sinestep3.wav,None,1000,30,2678910,338,23.285
C,5,2656906,vowelstep5.wav,None,1000,30,2680926,342,25.285
C,5,2656906,sinestep1.wav,None,1000,30,2682909,327,27.285
C,5,2656906,vowelstep1.wav,None,1000,30,2684909,354,29.285
C,5,2656906,vowelstep7.wav,None,1000,30,2686909,327,31.285
C,5,2656906,vowelstep3.wav,None,1000,30,2688910,337,33.285
C,5,2656906,sinestep1.wav,None,1000,30,2690910,336,35.285
C,5,2656906,sinestep5.wav,None,1000,30,2692910,337,37.285
C,5,2656906,silence.wav,None,1000,30,2694910,343,39.285
C,5,2656906,vowelstep7.wav,None,1000,30,2696910,346,41.285
C,5,2656906,vowelstep5.wav,None,1000,30,2698910,345,43.285
C,5,2656906,sinestep5.wav,None,1000,30,2700910,356,45.285
C,5,2656906,silence.wav,None,1000,30,2702910,337,47.285
C,5,2656906,sinestep5.wav,None,1000,30,2704909,336,49.285
C,5,2656906,sinestep1.wav,None,1000,30,2706910,335,51.285
C,5,2656906,silence.wav,None,1000,30,2708910,342,53.285
C,5,2656906,vowelstep1.wav,None,1000,30,2710910,343,55.285
C,5,2656906,vowelstep1.wav,None,1000,30,2712910,351,57.285
C,5,2656906,sinestep1.wav,None,1000,30,2714910,356,59.285
C,5,2656906,silence.wav,None,1000,30,2716910,331,61.285
C,5,2656906,vowelstep5.wav,None,1000,30,2718910,335,63.285
C,5,2656906,vowelstep3.wav,None,1000,30,2720910,335,65.285
C,5,2656906,vowelstep3.wav,None,1000,30,2722911,344,67.285
C,5,2656906,vowelstep7.wav,None,1000,30,2724911,344,69.285
C,5,2656906,silence.wav,None,1000,30,2726911,341,71.285
C,5,2656906,vowelstep3.wav,None,1000,30,2728910,355,73.285
C,5,2656906,silence.wav,None,1000,30,2730910,333,75.285
C,5,2656906,sinestep5.wav,None,1000,30,2732910,335,77.285
C,5,2656906,vowelstep7.wav,None,1000,30,2734910,334,79.285
C,5,2656906,vowelstep1_catch.wav,1,150,30,2736910,344,81.285
C,5,2656906,vowelstep3.wav,None,1000,30,2738910,1193,83.285
C,5,2656906,sinestep7.wav,None,1000,30,2740911,344,85.285
C,5,2656906,vowelstep3.wav,None,1000,30,2742911,353,87.285
C,5,2656906,sinestep1.wav,None,1000,30,2744911,330,89.285
C,5,2656906,sinestep7.wav,None,1000,30,2746911,333,91.285
C,5,2656906,sinestep7.wav,None,1000,30,2748911,332,93.285
C,5,2656906,sinestep3.wav,None,1000,30,2750910,332,95.285
C,5,2656906,vowelstep3_catch.wav,1,67,30,2752910,342,97.285
C,5,2656906,sinestep5.wav,None,1000,30,2754910,1275,99.285
C,5,2656906,sinestep5.wav,None,1000,30,2756910,353,101.285
C,5,2656906,vowelstep3.wav,None,1000,30,2758911,319,103.285
C,5,2656906,vowelstep5.wav,None,1000,30,2760911,332,105.285
C,5,2656906,sinestep1.wav,None,1000,30,2762911,330,107.285
C,5,2656906,sinestep3.wav,None,1000,30,2764911,342,109.285
C,5,2656906,vowelstep5.wav,None,1000,30,2766911,342,111.285
C,5,2656906,vowelstep7.wav,None,1000,30,2768911,341,113.285
C,5,2656906,vowelstep1.wav,None,1000,30,2770911,342,115.285
C,5,2656906,sinestep7.wav,None,1000,30,2772911,328,117.285
C,5,2656906,sinestep3.wav,None,1000,30,2774910,333,119.285
C,5,2656906,vowelstep1.wav,None,1000,30,2776911,327,121.285
C,5,2656906,vowelstep1.wav,None,1000,30,2778911,341,123.285
C,5,2656906,sinestep3.wav,None,1000,30,2780911,339,125.285
C,5,2656906,silence.wav,None,1000,30,2782911,340,127.285
C,5,2656906,silence.wav,None,1000,30,2784911,351,129.285
C,5,2656906,vowelstep5_catch.wav,None,1000,30,2786911,331,131.285
C,5,2656906,vowelstep5.wav,None,1000,30,2788911,327,133.285
C,5,2656906,silence.wav,None,1000,30,2790911,332,135.285
C,5,2656906,sinestep1.wav,None,1000,30,2792912,335,137.285
C,5,2656906,vowelstep7.wav,None,1000,30,2794912,340,139.285
C,5,2656906,sinestep7.wav,None,1000,30,2796912,338,141.285
C,5,2656906,silence.wav,None,1000,30,2798911,340,143.285
C,5,2656906,silence.wav,None,1000,30,2800911,320,145.285
C,5,2656906,sinestep7.wav,None,1000,30,2802911,330,147.285
C,5,2656906,vowelstep1.wav,None,1000,30,2804911,326,149.285
C,5,2656906,vowelstep5.wav,None,1000,30,2806911,330,151.285
C,5,2656906,vowelstep5.wav,None,1000,30,2808911,335,153.285
C,5,2656906,vowelstep7.wav,None,1000,30,2810912,340,155.285
C,5,2656906,sinestep7.wav,None,1000,30,2812912,337,157.285
C,5,2656906,vowelstep1.wav,None,1000,30,2814912,318,159.285
C,5,2656906,vowelstep3.wav,None,1000,30,2816912,328,161.285
C,5,2656906,sinestep5.wav,None,1000,30,2818912,328,163.285
C,5,2656906,sinestep7.wav,None,1000,30,2820912,326,165.285
C,5,2656906,sinestep1.wav,None,1000,30,2822911,339,167.285
C,5,2656906,sinestep7.wav,None,1000,30,2824911,338,169.285
C,5,2656906,sinestep3.wav,None,1000,30,2826911,339,171.285
C,5,2656906,silence.wav,None,1000,30,2828912,349,173.285
C,5,2656906,vowelstep7.wav,None,1000,30,2830912,347,175.285
C,5,2656906,sinestep7.wav,None,1000,30,2832912,348,177.285
C,5,2656906,sinestep5.wav,None,1000,30,2834912,357,179.285
C,5,2656906,vowelstep7.wav,None,1000,30,2836912,337,181.285
C,5,2656906,vowelstep5.wav,None,1000,30,2838912,333,183.285
C,5,2656906,vowelstep3.wav,None,1000,30,2840912,337,185.285
C,5,2656906,vowelstep7_catch.wav,1,75,30,2842912,336,187.285
C,5,2656906,vowelstep3.wav,None,1000,30,2844911,1271,189.285
C,5,2656906,vowelstep5.wav,None,1000,30,2846912,347,191.285
C,5,2656906,vowelstep7.wav,None,1000,30,2848912,326,193.285
C,5,2656906,vowelstep7_catch.wav,1,107,30,2850912,336,195.285
C,5,2656906,vowelstep5_catch.wav,1,39,30,2852912,1227,197.285
C,5,2656906,sinestep5.wav,None,1000,30,2854912,1292,199.285
C,5,2656906,sinestep3.wav,None,1000,30,2856912,347,201.285
C,5,2656906,vowelstep3_catch.wav,1,92,30,2858912,345,203.285
C,5,2656906,vowelstep1_catch.wav,1,20,30,2860912,1252,205.285
C,5,2656906,vowelstep5.wav,None,1000,30,2862913,1336,207.285
C,5,2656906,vowelstep1.wav,None,1000,30,2864913,335,209.285
C,5,2656906,sinestep1_catch.wav,1,322,30,2866912,337,211.285
C,5,2656906,sinestep3_catch.wav,1,48,30,2868912,1009,213.285
C,5,2656906,sinestep1.wav,None,1000,30,2870912,1297,215.285
C,5,2656906,vowelstep3.wav,None,1000,30,2872912,340,217.285
C,5,2656906,sinestep3.wav,None,1000,30,2874912,345,219.285
C,5,2656906,vowelstep5.wav,None,1000,30,2876912,354,221.285
C,5,2656906,sinestep7.wav,None,1000,30,2878912,325,223.285
C,5,2656906,sinestep1.wav,None,1000,30,2880913,335,225.285
C,5,2656906,sinestep5_catch.wav,1,211,30,2882913,334,227.285
C,5,2656906,vowelstep7.wav,None,1000,30,2884913,1133,229.285
C,5,2656906,vowelstep3.wav,None,1000,30,2886913,341,231.285
C,5,2656906,silence.wav,None,1000,30,2888913,345,233.285
C,5,2656906,vowelstep1.wav,None,1000,30,2890912,353,235.285
C,5,2656906,sinestep5.wav,None,1000,30,2892912,325,237.285
C,5,2656906,sinestep1.wav,None,1000,30,2894912,335,239.285
C,5,2656906,vowelstep7.wav,None,1000,30,2896912,336,241.285
C,5,2656906,sinestep3.wav,None,1000,30,2898913,345,243.285
C,5,2656906,sinestep3.wav,None,1000,30,2900913,344,245.285
C,5,2656906,sinestep5.wav,None,1000,30,2902913,341,247.285
C,5,2656906,vowelstep3.wav,None,1000,30,2904913,344,249.285
C,5,2656906,sinestep3.wav,None,1000,30,2906913,331,251.285
C,5,2656906,silence.wav,None,1000,30,2908913,333,253.285
C,5,2656906,sinestep3.wav,None,1000,30,2910913,333,255.285
C,5,2656906,vowelstep1.wav,None,1000,30,2912913,334,257.285
C,5,2656906,silence.wav,None,1000,30,2914912,344,259.285
C,5,2656906,vowelstep1.wav,None,1000,30,2916913,342,261.285
C,5,2656906,silence.wav,None,1000,30,2918913,339,263.285
C,5,2656906,sinestep7.wav,None,1000,30,2920913,322,265.285
C,5,2656906,sinestep3.wav,None,1000,30,2922913,331,267.285
C,5,2656906,vowelstep1.wav,None,1000,30,2924913,333,269.285
C,5,2656906,sinestep7.wav,None,1000,30,2926913,342,271.285
C,5,2656906,sinestep7_catch.wav,1,72,30,2928913,343,273.285
C,5,2656906,vowelstep5.wav,None,1000,30,2930913,1269,275.285
C,5,2656906,silence.wav,None,1000,30,2932914,341,277.285
C,5,2656906,silence.wav,None,1000,30,2934914,328,279.285
C,5,2656906,sinestep3.wav,None,1000,30,2936913,329,281.285
C,5,2656906,vowelstep7.wav,None,1000,30,2938913,330,283.285
C,5,2656906,sinestep5.wav,None,1000,30,2940913,331,285.285
C,5,2656906,sinestep5.wav,None,1000,30,2942913,341,287.285
C,5,2656906,vowelstep3.wav,None,1000,30,2944913,341,289.285
C,5,2656906,sinestep3.wav,None,1000,30,2946913,341,291.285
C,5,2656906,silence.wav,None,1000,30,2948913,348,293.285
C,5,2656906,silence.wav,None,1000,30,2950914,331,295.285
C,5,2656906,vowelstep7.wav,None,1000,30,2952914,325,297.285
C,5,2656906,silence.wav,None,1000,30,2954914,327,299.285
C,5,2656906,vowelstep5.wav,None,1000,30,2956914,340,301.285
C,5,2656906,sinestep5.wav,None,1000,30,2958914,339,303.285
C,5,2656906,silence.wav,None,1000,30,2960913,340,305.285
C,5,2656906,silence.wav,None,1000,30,2962913,350,307.285
C,5,2656906,silence.wav,None,1000,30,2964913,327,309.285
C,5,2656906,sinestep7_catch.wav,1,69,30,2966913,327,311.285
C,5,2656906,sinestep7.wav,None,1000,30,2968914,1257,313.285
C,5,2656906,sinestep5_catch.wav,1,69,30,2970914,337,315.285
C,5,2656906,sinestep5.wav,None,1000,30,2972914,1268,317.285
C,5,2656906,sinestep3_catch.wav,1,4,30,2974914,338,319.285
H,6,3042212,sinestep3.wav,None,1000,30,3042215,0,1.285
H,6,3042212,sinestep7.wav,None,1000,30,3044215,338,3.285
H,6,3042212,sinestep3.wav,None,1000,30,3046231,340,5.285
H,6,3042212,vowelstep3.wav,None,1000,30,3048231,321,7.285
H,6,3042212,vowelstep1.wav,None,1000,30,3050231,321,9.285
H,6,3042212,sinestep7.wav,None,1000,30,3052231,327,11.285
H,6,3042212,vowelstep3.wav,None,1000,30,3054231,331,13.285
H,6,3042212,silence.wav,None,1000,30,3056232,335,15.285
H,6,3042212,vowelstep1.wav,None,1000,30,3058215,310,17.285
H,6,3042212,sinestep5.wav,None,1000,30,3060215,339,19.285
H,6,3042212,sinestep7.wav,None,1000,30,3062215,340,21.285
H,6,3042212,vowelstep7.wav,None,1000,30,3064232,349,23.285
H,6,3042212,vowelstep1_catch.wav,1,272,30,3066232,329,25.285
H,6,3042212,sinestep5.wav,None,1000,30,3068232,1053,27.285
H,6,3042212,vowelstep5.wav,None,1000,30,3070231,328,29.285
H,6,3042212,silence.wav,None,1000,30,3072231,337,31.285
H,6,3042212,vowelstep3_catch.wav,1,91,30,3074216,318,33.285
H,6,3042212,sinestep7.wav,None,1000,30,3076215,1246,35.285
H,6,3042212,sinestep5.wav,None,1000,30,3078215,349,37.285
H,6,3042212,silence.wav,None,1000,30,3080215,348,39.285
H,6,3042212,vowelstep3.wav,None,1000,30,3082215,348,41.285
H,6,3042212,vowelstep1.wav,None,1000,30,3084232,354,43.285
H,6,3042212,vowelstep1.wav,None,1000,30,3086232,337,45.285
H,6,3042212,vowelstep3.wav,None,1000,30,3088232,318,47.285
H,6,3042212,sinestep3.wav,None,1000,30,3090216,316,49.285
H,6,3042212,vowelstep1.wav,None,1000,30,3092216,336,51.285
H,6,3042212,sinestep7.wav,None,1000,30,3094216,347,53.285
H,6,3042212,vowelstep7.wav,None,1000,30,3096216,345,55.285
H,6,3042212,vowelstep5_catch.wav,1,124,30,3098216,357,57.285
H,6,3042212,vowelstep5.wav,None,1000,30,3100232,1213,59.285
H,6,3042212,vowelstep3.wav,None,1000,30,3102232,314,61.285
H,6,3042212,vowelstep7_catch.wav,1,38,30,3104232,317,63.285
H,6,3042212,sinestep3.wav,None,1000,30,3106232,1277,65.285
H,6,3042212,sinestep1.wav,None,1000,30,3108216,327,67.285
H,6,3042212,sinestep7.wav,None,1000,30,3110216,346,69.285
H,6,3042212,silence.wav,None,1000,30,3112216,357,71.285
H,6,3042212,vowelstep1.wav,None,1000,30,3114216,326,73.285
H,6,3042212,vowelstep7.wav,None,1000,30,3116216,333,75.285
H,6,3042212,sinestep7.wav,None,1000,30,3118216,337,77.285
H,6,3042212,sinestep1.wav,None,1000,30,3120232,341,79.285
H,6,3042212,sinestep7.wav,None,1000,30,3122215,327,81.285
H,6,3042212,sinestep1.wav,None,1000,30,3124215,345,83.285
H,6,3042212,vowelstep5.wav,None,1000,30,3126216,346,85.285
H,6,3042212,sinestep3.wav,None,1000,30,3128216,335,87.285
H,6,3042212,vowelstep5.wav,None,1000,30,3130216,335,89.285
H,6,3042212,silence.wav,None,1000,30,3132216,331,91.285
H,6,3042212,silence.wav,None,1000,30,3134216,333,93.285
H,6,3042212,sinestep5.wav,None,1000,30,3136216,341,95.285
H,6,3042212,sinestep3.wav,None,1000,30,3138216,346,97.285
H,6,3042212,sinestep7.wav,None,1000,30,3140216,354,99.285
H,6,3042212,sinestep7_catch.wav,1,44,30,3142216,326,101.285
H,6,3042212,silence.wav,None,1000,30,3144217,1288,103.285
H,6,3042212,sinestep3.wav,None,1000,30,3146216,334,105.285
H,6,3042212,silence.wav,None,1000,30,3148216,341,107.285
H,6,3042212,vowelstep1.wav,None,1000,30,3150216,344,109.285
H,6,3042212,vowelstep7.wav,None,1000,30,3152216,343,111.285
H,6,3042212,sinestep5.wav,None,1000,30,3154216,344,113.285
H,6,3042212,silence.wav,None,1000,30,3156216,334,115.285
H,6,3042212,vowelstep7.wav,None,1000,30,3158216,334,117.285
H,6,3042212,vowelstep3.wav,None,1000,30,3160217,333,119.285
H,6,3042212,sinestep5.wav,None,1000,30,3162217,334,121.285
H,6,3042212,sinestep1.wav,None,1000,30,3164217,339,123.285
H,6,3042212,vowelstep3.wav,None,1000,30,3166217,343,125.285
H,6,3042212,vowelstep3.wav,None,1000,30,3168217,338,127.285
H,6,3042212,vowelstep5.wav,None,1000,30,3170216,334,129.285
H,6,3042212,vowelstep1.wav,None,1000,30,3172216,332,131.285
H,6,3042212,vowelstep7.wav,None,1000,30,3174216,333,133.285
H,6,3042212,vowelstep3.wav,None,1000,30,3176216,332,135.285
H,6,3042212,vowelstep5.wav,None,1000,30,3178217,344,137.285
H,6,3042212,vowelstep5.wav,None,1000,30,3180217,338,139.285
H,6,3042212,sinestep7.wav,None,1000,30,3182217,339,141.285
H,6,3042212,vowelstep1.wav,None,1000,30,3184217,319,143.285
H,6,3042212,sinestep3.wav,None,1000,30,3186217,332,145.285
H,6,3042212,sinestep1.wav,None,1000,30,3188217,331,147.285
H,6,3042212,vowelstep1.wav,None,1000,30,3190217,332,149.285
H,6,3042212,sinestep5_catch.wav,1,46,30,3192216,342,151.285
H,6,3042212,sinestep7.wav,None,1000,30,3194216,1295,153.285
H,6,3042212,sinestep3_catch.wav,2,55,30,3196217,339,155.285
H,6,3042212,sinestep7.wav,None,1000,30,3198217,1284,157.285
H,6,3042212,sinestep5.wav,None,1000,30,3200217,327,159.285
H,6,3042212,silence.wav,None,1000,30,3202217,332,161.285
H,6,3042212,sinestep1_catch.wav,2,230,30,3204217,331,163.285
H,6,3042212,vowelstep7.wav,None,1000,30,3206217,1110,165.285
H,6,3042212,vowelstep7.wav,None,1000,30,3208217,341,167.285
H,6,3042212,sinestep7.wav,None,1000,30,3210217,341,169.285
H,6,3042212,sinestep3.wav,None,1000,30,3212218,322,171.285
H,6,3042212,sinestep5.wav,None,1000,30,3214218,326,173.285
H,6,3042212,vowelstep1_catch.wav,2,295,30,3216217,330,175.285
H,6,3042212,vowelstep1.wav,None,1000,30,3218217,1033,177.285
H,6,3042212,sinestep3.wav,None,1000,30,3220217,341,179.285
H,6,3042212,sinestep3.wav,None,1000,30,3222217,340,181.285
H,6,3042212,vowelstep5.wav,None,1000,30,3224217,340,183.285
H,6,3042212,sinestep1.wav,None,1000,30,3226217,350,185.285
H,6,3042212,sinestep1.wav,None,1000,30,3228217,327,187.285
H,6,3042212,vowelstep7.wav,None,1000,30,3230218,331,189.285
H,6,3042212,sinestep1.wav,None,1000,30,3232218,324,191.285
H,6,3042212,sinestep5.wav,None,1000,30,3234218,328,193.285
H,6,3042212,vowelstep3_catch.wav,2,333,30,3236218,338,195.285
H,6,3042212,sinestep1.wav,None,1000,30,3238218,1005,197.285
H,6,3042212,silence.wav,None,1000,30,3240217,349,199.285
H,6,3042212,vowelstep1.wav,None,1000,30,3242217,319,201.285
H,6,3042212,vowelstep5_catch.wav,2,139,30,3244217,329,203.285
H,6,3042212,sinestep5.wav,None,1000,30,3246217,1185,205.285
H,6,3042212,sinestep1.wav,None,1000,30,3248218,329,207.285
H,6,3042212,silence.wav,None,1000,30,3250218,337,209.285
H,6,3042212,sinestep3.wav,None,1000,30,3252218,338,211.285
H,6,3042212,silence.wav,None,1000,30,3254218,338,213.285
H,6,3042212,vowelstep7_catch.wav,1,360,30,3256218,317,215.285
H,6,3042212,vowelstep5.wav,None,1000,30,3258218,966,217.285
H,6,3042212,sinestep7.wav,None,1000,30,3260218,324,219.285
H,6,3042212,silence.wav,None,1000,30,3262217,326,221.285
H,6,3042212,sinestep1.wav,None,1000,30,3264217,337,223.285
H,6,3042212,silence.wav,None,1000,30,3266218,335,225.285
H,6,3042212,silence.wav,None,1000,30,3268218,337,227.285
H,6,3042212,silence.wav,None,1000,30,3270218,327,229.285
H,6,3042212,silence.wav,None,1000,30,3272218,326,231.285
H,6,3042212,sinestep5.wav,None,1000,30,3274218,327,233.285
H,6,3042212,silence.wav,None,1000,30,3276218,327,235.285
H,6,3042212,vowelstep3.wav,None,1000,30,3278218,333,237.285
H,6,3042212,silence.wav,None,1000,30,3280218,338,239.285
H,6,3042212,silence.wav,None,1000,30,3282219,335,241.285
H,6,3042212,vowelstep1_catch.wav,2,274,30,3284218,316,243.285
H,6,3042212,vowelstep5.wav,None,1000,30,3286218,1050,245.285
H,6,3042212,vowelstep7.wav,None,1000,30,3288218,345,247.285
H,6,3042212,vowelstep3_catch.wav,2,218,30,3290218,356,249.285
H,6,3042212,vowelstep1.wav,None,1000,30,3292218,1117,251.285
H,6,3042212,sinestep3.wav,None,1000,30,3294218,332,253.285
H,6,3042212,vowelstep5_catch.wav,1,73,30,3296218,336,255.285
H,6,3042212,vowelstep5.wav,None,1000,30,3298218,1270,257.285
H,6,3042212,silence.wav,None,1000,30,3300219,346,259.285
H,6,3042212,vowelstep7.wav,None,1000,30,3302219,353,261.285
H,6,3042212,sinestep5.wav,None,1000,30,3304219,354,263.285
H,6,3042212,vowelstep5.wav,None,1000,30,3306219,334,265.285
H,6,3042212,vowelstep7.wav,None,1000,30,3308218,331,267.285
H,6,3042212,vowelstep3.wav,None,1000,30,3310218,345,269.285
H,6,3042212,vowelstep3.wav,None,1000,30,3312218,340,271.285
H,6,3042212,silence.wav,None,1000,30,3314218,343,273.285
H,6,3042212,vowelstep3.wav,None,1000,30,3316218,342,275.285
H,6,3042212,sinestep1.wav,None,1000,30,3318219,355,277.285
H,6,3042212,silence.wav,None,1000,30,3320219,333,279.285
H,6,3042212,sinestep1.wav,None,1000,30,3322219,334,281.285
H,6,3042212,vowelstep3.wav,None,1000,30,3324219,329,283.285
H,6,3042212,silence.wav,None,1000,30,3326219,341,285.285
H,6,3042212,vowelstep5.wav,None,1000,30,3328219,340,287.285
H,6,3042212,vowelstep5.wav,None,1000,30,3330219,343,289.285
H,6,3042212,vowelstep1.wav,None,1000,30,3332218,352,291.285
H,6,3042212,sinestep5.wav,None,1000,30,3334218,334,293.285
H,6,3042212,vowelstep7.wav,None,1000,30,3336219,332,295.285
H,6,3042212,vowelstep1.wav,None,1000,30,3338219,333,297.285
H,6,3042212,vowelstep7.wav,None,1000,30,3340219,332,299.285
H,6,3042212,vowelstep3.wav,None,1000,30,3342219,342,301.285
H,6,3042212,sinestep1.wav,None,1000,30,3344219,339,303.285
H,6,3042212,sinestep5.wav,None,1000,30,3346219,324,305.285
H,6,3042212,vowelstep5.wav,None,1000,30,3348219,330,307.285
H,6,3042212,sinestep3.wav,None,1000,30,3350219,332,309.285
H,6,3042212,vowelstep7.wav,None,1000,30,3352220,332,311.285
H,6,3042212,sinestep7.wav,None,1000,30,3354219,340,313.285
H,6,3042212,sinestep5.wav,None,1000,30,3356219,338,315.285
H,6,3042212,sinestep3.wav,None,1000,30,3358219,342,317.285
H,6,3042212,sinestep1.wav,None,1000,30,3360219,337,319.285
J,7,57750,sinestep5_catch.wav,1,257,30,57765,0,1.285
J,7,57750,sinestep5.wav,None,1000,30,59765,1067,3.285
J,7,57750,sinestep3.wav,None,1000,30,61765,344,5.285
J,7,57750,sinestep1.wav,None,1000,30,63765,343,7.285
J,7,57750,sinestep7.wav,None,1000,30,65766,344,9.285
J,7,57750,vowelstep3.wav,None,1000,30,67766,322,11.285
J,7,57750,sinestep1.wav,None,1000,30,69766,332,13.285
J,7,57750,vowelstep5.wav,None,1000,30,71766,332,15.285
J,7,57750,vowelstep3.wav,None,1000,30,73765,332,17.285
J,7,57750,vowelstep1.wav,None,1000,30,75765,340,19.285
J,7,57750,vowelstep1.wav,None,1000,30,77765,343,21.285
J,7,57750,sinestep3.wav,None,1000,30,79765,341,23.285
J,7,57750,silence.wav,None,1000,30,81765,342,25.285
J,7,57750,vowelstep7.wav,None,1000,30,83766,329,27.285
J,7,57750,sinestep3.wav,None,1000,30,85766,332,29.285
J,7,57750,sinestep7.wav,None,1000,30,87766,327,31.285
J,7,57750,silence.wav,None,1000,30,89766,343,33.285
J,7,57750,vowelstep5.wav,None,1000,30,91766,341,35.285
J,7,57750,sinestep1.wav,None,1000,30,93766,343,37.285
J,7,57750,sinestep1_catch.wav,1,38,30,95765,352,39.285
J,7,57750,sinestep7.wav,None,1000,30,97765,1294,41.285
J,7,57750,vowelstep7.wav,None,1000,30,99765,332,43.285
J,7,57750,sinestep3_catch.wav,1,34,30,101766,331,45.285
J,7,57750,vowelstep3.wav,None,1000,30,103766,1306,47.285
J,7,57750,vowelstep7.wav,None,1000,30,105766,341,49.285
J,7,57750,sinestep1.wav,None,1000,30,107766,341,51.285
J,7,57750,vowelstep3.wav,None,1000,30,109766,341,53.285
J,7,57750,vowelstep1.wav,None,1000,30,111766,318,55.285
J,7,57750,sinestep5.wav,None,1000,30,113766,331,57.285
J,7,57750,sinestep5_catch.wav,2,86,30,115766,331,59.285
J,7,57750,sinestep5.wav,None,1000,30,117767,1244,61.285
J,7,57750,vowelstep7.wav,None,1000,30,119766,341,63.285
J,7,57750,sinestep7.wav,None,1000,30,121766,340,65.285
J,7,57750,vowelstep1.wav,None,1000,30,123766,341,67.285
J,7,57750,sinestep7_catch.wav,1,63,30,125766,330,69.285
J,7,57750,silence.wav,None,1000,30,127766,1266,71.285
J,7,57750,vowelstep5.wav,None,1000,30,129766,330,73.285
J,7,57750,sinestep5.wav,None,1000,30,131766,329,75.285
J,7,57750,sinestep5.wav,None,1000,30,133766,340,77.285
J,7,57750,vowelstep3.wav,None,1000,30,135767,340,79.285
J,7,57750,vowelstep5.wav,None,1000,30,137767,349,81.285
J,7,57750,sinestep3.wav,None,1000,30,139767,319,83.285
J,7,57750,silence.wav,None,1000,30,141766,329,85.285
J,7,57750,vowelstep3.wav,None,1000,30,143766,328,87.285
J,7,57750,vowelstep7.wav,None,1000,30,145766,328,89.285
J,7,57750,silence.wav,None,1000,30,147766,334,91.285
J,7,57750,sinestep3.wav,None,1000,30,149766,340,93.285
J,7,57750,silence.wav,None,1000,30,151766,334,95.285
J,7,57750,sinestep1.wav,None,1000,30,153767,320,97.285
J,7,57750,sinestep5_catch.wav,1,86,30,155767,327,99.285
J,7,57750,sinestep7.wav,None,1000,30,157767,1240,101.285
J,7,57750,sinestep5.wav,None,1000,30,159767,328,103.285
J,7,57750,sinestep5.wav,None,1000,30,161767,337,105.285
J,7,57750,sinestep3.wav,None,1000,30,163767,336,107.285
J,7,57750,sinestep3_catch.wav,1,76,30,165766,348,109.285
J,7,57750,sinestep3.wav,None,1000,30,167766,1271,111.285
J,7,57750,silence.wav,None,1000,30,169766,327,113.285
J,7,57750,sinestep1.wav,None,1000,30,171767,327,115.285
J,7,57750,silence.wav,None,1000,30,173767,327,117.285
J,7,57750,vowelstep3.wav,None,1000,30,175767,336,119.285
J,7,57750,vowelstep5.wav,None,1000,30,177767,336,121.285
J,7,57750,vowelstep7.wav,None,1000,30,179767,337,123.285
J,7,57750,silence.wav,None,1000,30,181767,347,125.285
J,7,57750,sinestep1.wav,None,1000,30,183767,328,127.285
J,7,57750,sinestep3.wav,None,1000,30,185767,328,129.285
J,7,57750,sinestep7.wav,None,1000,30,187768,327,131.285
J,7,57750,silence.wav,None,1000,30,189767,336,133.285
J,7,57750,sinestep1.wav,None,1000,30,191767,336,135.285
J,7,57750,vowelstep7.wav,None,1000,30,193767,333,137.285
J,7,57750,sinestep5.wav,None,1000,30,195767,346,139.285
J,7,57750,vowelstep1.wav,None,1000,30,197767,345,141.285
J,7,57750,vowelstep7.wav,None,1000,30,199767,345,143.285
J,7,57750,vowelstep3.wav,None,1000,30,201767,326,145.285
J,7,57750,vowelstep3.wav,None,1000,30,203767,335,147.285
J,7,57750,sinestep7.wav,None,1000,30,205768,335,149.285
J,7,57750,vowelstep5.wav,None,1000,30,207768,334,151.285
J,7,57750,silence.wav,None,1000,30,209768,342,153.285
J,7,57750,sinestep1.wav,None,1000,30,211768,341,155.285
J,7,57750,sinestep3.wav,None,1000,30,213767,345,157.285
J,7,57750,silence.wav,None,1000,30,215767,339,159.285
J,7,57750,sinestep1.wav,None,1000,30,217767,335,161.285
J,7,57750,vowelstep7.wav,None,1000,30,219767,333,163.285
J,7,57750,vowelstep7.wav,None,1000,30,221767,335,165.285
J,7,57750,sinestep1_catch.wav,1,211,30,223768,335,167.285
J,7,57750,vowelstep1_catch.wav,1,227,30,225768,1132,169.285
J,7,57750,vowelstep1.wav,None,1000,30,227768,1116,171.285
J,7,57750,vowelstep7.wav,None,1000,30,229768,353,173.285
J,7,57750,sinestep1.wav,None,1000,30,231768,334,175.285
J,7,57750,vowelstep5.wav,None,1000,30,233768,333,177.285
J,7,57750,vowelstep5.wav,None,1000,30,235767,334,179.285
J,7,57750,sinestep5.wav,None,1000,30,237767,344,181.285
J,7,57750,sinestep7.wav,None,1000,30,239767,343,183.285
J,7,57750,sinestep7.wav,None,1000,30,241768,343,185.285
J,7,57750,sinestep1.wav,None,1000,30,243768,342,187.285
J,7,57750,vowelstep1.wav,None,1000,30,245768,332,189.285
J,7,57750,silence.wav,None,1000,30,247768,333,191.285
J,7,57750,sinestep5.wav,None,1000,30,249768,330,193.285
J,7,57750,vowelstep5.wav,None,1000,30,251768,332,195.285
J,7,57750,vowelstep1.wav,None,1000,30,253768,340,197.285
J,7,57750,vowelstep1.wav,None,1000,30,255768,343,199.285
J,7,57750,sinestep3.wav,None,1000,30,257768,341,201.285
J,7,57750,sinestep3.wav,None,1000,30,259768,351,203.285
J,7,57750,silence.wav,None,1000,30,261768,331,205.285
J,7,57750,sinestep5.wav,None,1000,30,263768,331,207.285
J,7,57750,vowelstep1.wav,None,1000,30,265768,332,209.285
J,7,57750,vowelstep5.wav,None,1000,30,267768,341,211.285
J,7,57750,vowelstep3.wav,None,1000,30,269768,341,213.285
J,7,57750,vowelstep3.wav,None,1000,30,271768,341,215.285
J,7,57750,silence.wav,None,1000,30,273768,322,217.285
J,7,57750,sinestep1.wav,None,1000,30,275769,327,219.285
J,7,57750,vowelstep3.wav,None,1000,30,277769,329,221.285
J,7,57750,sinestep7.wav,None,1000,30,279769,328,223.285
J,7,57750,vowelstep7.wav,None,1000,30,281768,340,225.285
J,7,57750,silence.wav,None,1000,30,283768,339,227.285
J,7,57750,vowelstep5.wav,None,1000,30,285768,340,229.285
J,7,57750,silence.wav,None,1000,30,287768,348,231.285
J,7,57750,sinestep3.wav,None,1000,30,289768,329,233.285
J,7,57750,vowelstep5.wav,None,1000,30,291768,329,235.285
J,7,57750,vowelstep3.wav,None,1000,30,293769,329,237.285
J,7,57750,vowelstep5.wav,None,1000,30,295769,339,239.285
J,7,57750,vowelstep7.wav,None,1000,30,297769,308,241.285
J,7,57750,vowelstep1.wav,None,1000,30,299769,339,243.285
J,7,57750,sinestep7.wav,None,1000,30,301769,318,245.285
J,7,57750,sinestep7.wav,None,1000,30,303769,328,247.285
J,7,57750,silence.wav,None,1000,30,305768,328,249.285
J,7,57750,vowelstep1.wav,None,1000,30,307768,328,251.285
J,7,57750,vowelstep3_catch.wav,1,119,30,309768,338,253.285
J,7,57750,vowelstep1.wav,None,1000,30,311769,1218,255.285
J,7,57750,vowelstep5_catch.wav,1,107,30,313769,337,257.285
J,7,57750,silence.wav,None,1000,30,315769,1209,259.285
J,7,57750,sinestep5.wav,None,1000,30,317769,327,261.285
J,7,57750,vowelstep1.wav,None,1000,30,319769,328,263.285
J,7,57750,sinestep5.wav,None,1000,30,321769,328,265.285
J,7,57750,vowelstep3.wav,None,1000,30,323769,327,267.285
J,7,57750,sinestep5.wav,None,1000,30,325769,337,269.285
J,7,57750,sinestep7.wav,None,1000,30,327769,334,271.285
J,7,57750,silence.wav,None,1000,30,329753,346,273.285
J,7,57750,vowelstep7_catch.wav,1,83,30,331769,341,275.285
J,7,57750,sinestep3.wav,None,1000,30,333769,1241,277.285
J,7,57750,vowelstep5.wav,None,1000,30,335769,326,279.285
J,7,57750,silence.wav,None,1000,30,337769,325,281.285
J,7,57750,silence.wav,None,1000,30,339769,332,283.285
J,7,57750,silence.wav,None,1000,30,341769,331,285.285
J,7,57750,vowelstep7.wav,None,1000,30,343769,339,287.285
J,7,57750,sinestep3.wav,None,1000,30,345753,317,289.285
J,7,57750,vowelstep5_catch.wav,1,104,30,347753,343,291.285
J,7,57750,silence.wav,None,1000,30,349770,1236,293.285
J,7,57750,sinestep7.wav,None,1000,30,351769,325,295.285
J,7,57750,vowelstep1.wav,None,1000,30,353769,333,297.285
J,7,57750,silence.wav,None,1000,30,355769,335,299.285
J,7,57750,sinestep1.wav,None,1000,30,357769,335,301.285
J,7,57750,sinestep5.wav,None,1000,30,359769,344,303.285
J,7,57750,vowelstep5.wav,None,1000,30,361769,325,305.285
J,7,57750,vowelstep3.wav,None,1000,30,363753,325,307.285
J,7,57750,sinestep7.wav,None,1000,30,365753,354,309.285
J,7,57750,vowelstep7.wav,None,1000,30,367770,353,311.285
J,7,57750,vowelstep3_catch.wav,1,82,30,369770,335,313.285
J,7,57750,vowelstep1_catch.wav,1,153,30,371770,1262,315.285
J,7,57750,sinestep3.wav,None,1000,30,373770,1160,317.285
J,7,57750,sinestep1.wav,None,1000,30,375769,324,319.285
G,8,435391,vowelstep3.wav,None,1000,30,435404,0,1.285
G,8,435391,vowelstep3.wav,None,1000,30,437404,340,3.285
G,8,435391,vowelstep7.wav,None,1000,30,439404,341,5.285
G,8,435391,vowelstep3.wav,None,1000,30,441404,340,7.285
G,8,435391,sinestep5.wav,None,1000,30,443404,320,9.285
G,8,435391,sinestep1_catch.wav,1,101,30,445404,330,11.285
G,8,435391,silence.wav,None,1000,30,447404,1229,13.285
G,8,435391,silence.wav,None,1000,30,449404,331,15.285
G,8,435391,vowelstep7.wav,None,1000,30,451404,340,17.285
G,8,435391,vowelstep1.wav,None,1000,30,453404,339,19.285
G,8,435391,silence.wav,None,1000,30,455404,339,21.285
G,8,435391,sinestep1.wav,None,1000,30,457404,350,23.285
G,8,435391,vowelstep7.wav,None,1000,30,459404,331,25.285
G,8,435391,sinestep5.wav,None,1000,30,461404,326,27.285
G,8,435391,sinestep5.wav,None,1000,30,463404,330,29.285
G,8,435391,sinestep3.wav,None,1000,30,465404,325,31.285
G,8,435391,vowelstep3.wav,None,1000,30,467405,310,33.285
G,8,435391,silence.wav,None,1000,30,469405,338,35.285
G,8,435391,vowelstep1.wav,None,1000,30,471405,349,37.285
G,8,435391,sinestep7.wav,None,1000,30,473405,329,39.285
G,8,435391,vowelstep5.wav,None,1000,30,475404,329,41.285
G,8,435391,vowelstep3.wav,None,1000,30,477404,328,43.285
G,8,435391,sinestep1.wav,None,1000,30,479404,338,45.285
G,8,435391,sinestep7.wav,None,1000,30,481404,339,47.285
G,8,435391,sinestep1.wav,None,1000,30,483404,339,49.285
G,8,435391,sinestep5.wav,None,1000,30,485405,348,51.285
G,8,435391,vowelstep1.wav,None,1000,30,487405,328,53.285
G,8,435391,silence.wav,None,1000,30,489405,328,55.285
G,8,435391,sinestep5.wav,None,1000,30,491405,328,57.285
G,8,435391,vowelstep1.wav,None,1000,30,493405,337,59.285
G,8,435391,vowelstep3.wav,None,1000,30,495405,338,61.285
G,8,435391,sinestep3.wav,None,1000,30,497404,338,63.285
G,8,435391,sinestep1.wav,None,1000,30,499404,348,65.285
G,8,435391,vowelstep5.wav,None,1000,30,501404,348,67.285
G,8,435391,vowelstep3.wav,None,1000,30,503405,347,69.285
G,8,435391,vowelstep5.wav,None,1000,30,505405,327,71.285
G,8,435391,vowelstep7.wav,None,1000,30,507405,335,73.285
G,8,435391,vowelstep5.wav,None,1000,30,509405,336,75.285
G,8,435391,vowelstep5.wav,None,1000,30,511405,336,77.285
G,8,435391,sinestep3.wav,None,1000,30,513405,346,79.285
G,8,435391,sinestep3_catch.wav,1,124,30,515405,345,81.285
G,8,435391,sinestep5_catch.wav,1,32,30,517405,1221,83.285
G,8,435391,sinestep7.wav,None,1000,30,519405,1323,85.285
G,8,435391,sinestep7_catch.wav,1,89,30,521405,333,87.285
G,8,435391,sinestep7.wav,None,1000,30,523405,1246,89.285
G,8,435391,vowelstep1.wav,None,1000,30,525405,332,91.285
G,8,435391,vowelstep7.wav,None,1000,30,527405,337,93.285
G,8,435391,vowelstep3.wav,None,1000,30,529405,341,95.285
G,8,435391,sinestep3.wav,None,1000,30,531405,345,97.285
G,8,435391,sinestep1.wav,None,1000,30,533405,344,99.285
G,8,435391,sinestep1.wav,None,1000,30,535405,326,101.285
G,8,435391,sinestep5.wav,None,1000,30,537406,335,103.285
G,8,435391,vowelstep7.wav,None,1000,30,539406,333,105.285
G,8,435391,silence.wav,None,1000,30,541406,334,107.285
G,8,435391,sinestep3.wav,None,1000,30,543406,341,109.285
G,8,435391,vowelstep1.wav,None,1000,30,545405,345,111.285
G,8,435391,sinestep3.wav,None,1000,30,547405,344,113.285
G,8,435391,sinestep3.wav,None,1000,30,549405,335,115.285
G,8,435391,sinestep7.wav,None,1000,30,551405,335,117.285
G,8,435391,silence.wav,None,1000,30,553405,334,119.285
G,8,435391,vowelstep5.wav,None,1000,30,555406,334,121.285
G,8,435391,sinestep1_catch.wav,1,16,30,557406,344,123.285
G,8,435391,silence.wav,None,1000,30,559406,1326,125.285
G,8,435391,sinestep5.wav,None,1000,30,561406,344,127.285
G,8,435391,sinestep7.wav,None,1000,30,563406,323,129.285
G,8,435391,sinestep3.wav,None,1000,30,565406,334,131.285
G,8,435391,sinestep3.wav,None,1000,30,567405,333,133.285
G,8,435391,vowelstep5.wav,None,1000,30,569405,333,135.285
G,8,435391,sinestep3.wav,None,1000,30,571405,343,137.285
G,8,435391,sinestep3_catch.wav,1,90,30,573406,343,139.285
G,8,435391,vowelstep1.wav,None,1000,30,575406,1252,141.285
G,8,435391,vowelstep1.wav,None,1000,30,577406,331,143.285
G,8,435391,sinestep5.wav,None,1000,30,579406,332,145.285
G,8,435391,silence.wav,None,1000,30,581406,333,147.285
G,8,435391,sinestep3.wav,None,1000,30,583406,333,149.285
G,8,435391,silence.wav,None,1000,30,585406,342,151.285
G,8,435391,vowelstep3.wav,None,1000,30,587406,341,153.285
G,8,435391,sinestep5.wav,None,1000,30,589406,342,155.285
G,8,435391,vowelstep7.wav,None,1000,30,591406,351,157.285
G,8,435391,silence.wav,None,1000,30,593406,330,159.285
G,8,435391,sinestep5_catch.wav,2,557,30,595406,332,161.285
G,8,435391,vowelstep5.wav,None,1000,30,597406,773,163.285
G,8,435391,silence.wav,None,1000,30,599406,342,165.285
G,8,435391,vowelstep7.wav,None,1000,30,601406,340,167.285
G,8,435391,vowelstep1.wav,None,1000,30,603406,341,169.285
G,8,435391,vowelstep1.wav,None,1000,30,605406,351,171.285
G,8,435391,vowelstep1.wav,None,1000,30,607407,317,173.285
G,8,435391,sinestep5.wav,None,1000,30,609407,331,175.285
G,8,435391,vowelstep3.wav,None,1000,30,611407,329,177.285
G,8,435391,sinestep1.wav,None,1000,30,613406,340,179.285
G,8,435391,vowelstep1.wav,None,1000,30,615406,339,181.285
G,8,435391,sinestep1.wav,None,1000,30,617406,340,183.285
G,8,435391,sinestep7.wav,None,1000,30,619406,341,185.285
G,8,435391,sinestep7.wav,None,1000,30,621406,331,187.285
G,8,435391,sinestep3.wav,None,1000,30,623406,331,189.285
G,8,435391,sinestep5.wav,None,1000,30,625407,331,191.285
G,8,435391,silence.wav,None,1000,30,627407,339,193.285
G,8,435391,sinestep7_catch.wav,2,92,30,629407,340,195.285
G,8,435391,vowelstep7_catch.wav,2,111,30,631407,1246,197.285
G,8,435391,sinestep7.wav,None,1000,30,633407,1233,199.285
G,8,435391,silence.wav,None,1000,30,635407,329,201.285
G,8,435391,sinestep7.wav,None,1000,30,637406,329,203.285
G,8,435391,sinestep3.wav,None,1000,30,639406,329,205.285
G,8,435391,vowelstep7.wav,None,1000,30,641406,339,207.285
G,8,435391,sinestep1.wav,None,1000,30,643407,339,209.285
G,8,435391,silence.wav,None,1000,30,645407,338,211.285
G,8,435391,silence.wav,None,1000,30,647407,338,213.285
G,8,435391,vowelstep7.wav,None,1000,30,649407,329,215.285
G,8,435391,vowelstep5.wav,None,1000,30,651407,328,217.285
G,8,435391,sinestep7.wav,None,1000,30,653407,328,219.285
G,8,435391,vowelstep5.wav,None,1000,30,655407,328,221.285
G,8,435391,vowelstep5_catch.wav,2,148,30,657407,338,223.285
G,8,435391,vowelstep7.wav,None,1000,30,659407,1189,225.285
G,8,435391,silence.wav,None,1000,30,661407,347,227.285
G,8,435391,silence.wav,None,1000,30,663407,348,229.285
G,8,435391,sinestep1.wav,None,1000,30,665407,326,231.285
G,8,435391,silence.wav,None,1000,30,667407,327,233.285
G,8,435391,vowelstep7.wav,None,1000,30,669407,333,235.285
G,8,435391,vowelstep5.wav,None,1000,30,671407,337,237.285
G,8,435391,vowelstep3.wav,None,1000,30,673407,337,239.285
G,8,435391,vowelstep3_catch.wav,2,71,30,675407,337,241.285
G,8,435391,sinestep1.wav,None,1000,30,677408,1246,243.285
G,8,435391,silence.wav,None,1000,30,679408,326,245.285
G,8,435391,sinestep7.wav,None,1000,30,681408,326,247.285
G,8,435391,sinestep1.wav,None,1000,30,683407,326,249.285
G,8,435391,sinestep3.wav,None,1000,30,685407,337,251.285
G,8,435391,vowelstep3.wav,None,1000,30,687407,335,253.285
G,8,435391,vowelstep1_catch.wav,2,88,30,689407,335,255.285
G,8,435391,sinestep7.wav,None,1000,30,691407,1258,257.285
G,8,435391,silence.wav,None,1000,30,693407,326,259.285
G,8,435391,sinestep5.wav,None,1000,30,695408,326,261.285
G,8,435391,sinestep5.wav,None,1000,30,697408,324,263.285
G,8,435391,vowelstep5.wav,None,1000,30,699408,335,265.285
G,8,435391,sinestep5.wav,None,1000,30,701408,335,267.285
G,8,435391,sinestep7.wav,None,1000,30,703408,345,269.285
G,8,435391,silence.wav,None,1000,30,705408,343,271.285
G,8,435391,vowelstep7_catch.wav,2,122,30,707407,325,273.285
G,8,435391,vowelstep5.wav,None,1000,30,709407,1202,275.285
G,8,435391,silence.wav,None,1000,30,711407,325,277.285
G,8,435391,sinestep3.wav,None,1000,30,713408,335,279.285
G,8,435391,vowelstep5.wav,None,1000,30,715408,334,281.285
G,8,435391,silence.wav,None,1000,30,717408,333,283.285
G,8,435391,vowelstep1.wav,None,1000,30,719408,343,285.285
G,8,435391,sinestep1.wav,None,1000,30,721408,325,287.285
G,8,435391,vowelstep3.wav,None,1000,30,723408,323,289.285
G,8,435391,vowelstep7.wav,None,1000,30,725408,324,291.285
G,8,435391,vowelstep7.wav,None,1000,30,727408,334,293.285
G,8,435391,sinestep1.wav,None,1000,30,729407,334,295.285
G,8,435391,vowelstep5.wav,None,1000,30,731408,333,297.285
G,8,435391,silence.wav,None,1000,30,733408,343,299.285
G,8,435391,sinestep1.wav,None,1000,30,735408,343,301.285
G,8,435391,vowelstep7.wav,None,1000,30,737408,343,303.285
G,8,435391,vowelstep5_catch.wav,2,128,30,739408,324,305.285
G,8,435391,vowelstep3.wav,None,1000,30,741408,1205,307.285
G,8,435391,vowelstep3_catch.wav,2,215,30,743408,332,309.285
G,8,435391,sinestep7.wav,None,1000,30,745408,1116,311.285
G,8,435391,sinestep5.wav,None,1000,30,747409,332,313.285
G,8,435391,vowelstep1.wav,None,1000,30,749409,319,315.285
G,8,435391,vowelstep3.wav,None,1000,30,751409,342,317.285
G,8,435391,vowelstep1.wav,None,1000,30,753408,352,319.285
I,9,810353,vowelstep7.wav,None,1000,30,810359,0,1.285
I,9,810353,sinestep1_catch.wav,2,59,30,812359,351,3.285
I,9,810353,sinestep3.wav,None,1000,30,814359,1280,5.285
I,9,810353,silence.wav,None,1000,30,816359,342,7.285
I,9,810353,vowelstep7.wav,None,1000,30,818360,341,9.285
I,9,810353,sinestep3_catch.wav,2,42,30,820360,340,11.285
I,9,810353,vowelstep3.wav,None,1000,30,822360,1299,13.285
I,9,810353,vowelstep3.wav,None,1000,30,824359,351,15.285
I,9,810353,silence.wav,None,1000,30,826359,359,17.285
I,9,810353,vowelstep1.wav,None,1000,30,828359,329,19.285
I,9,810353,vowelstep5.wav,None,1000,30,830359,339,21.285
I,9,810353,vowelstep7.wav,None,1000,30,832359,338,23.285
I,9,810353,sinestep1.wav,None,1000,30,834360,348,25.285
I,9,810353,vowelstep1.wav,None,1000,30,836360,348,27.285
I,9,810353,sinestep5_catch.wav,2,71,30,838360,348,29.285
I,9,810353,sinestep5.wav,None,1000,30,840360,1277,31.285
I,9,810353,vowelstep1.wav,None,1000,30,842360,328,33.285
I,9,810353,sinestep7.wav,None,1000,30,844360,340,35.285
I,9,810353,vowelstep3.wav,None,1000,30,846359,340,37.285
I,9,810353,vowelstep1.wav,None,1000,30,848359,339,39.285
I,9,810353,vowelstep1.wav,None,1000,30,850359,349,41.285
I,9,810353,sinestep3.wav,None,1000,30,852360,348,43.285
I,9,810353,sinestep5.wav,None,1000,30,854360,349,45.285
I,9,810353,sinestep5.wav,None,1000,30,856360,359,47.285
I,9,810353,vowelstep3.wav,None,1000,30,858360,338,49.285
I,9,810353,silence.wav,None,1000,30,860360,338,51.285
I,9,810353,sinestep7_catch.wav,1,39,30,862360,335,53.285
I,9,810353,silence.wav,None,1000,30,864360,1307,55.285
I,9,810353,sinestep1.wav,None,1000,30,866360,347,57.285
I,9,810353,vowelstep1.wav,None,1000,30,868359,344,59.285
I,9,810353,sinestep1.wav,None,1000,30,870360,327,61.285
I,9,810353,sinestep1.wav,None,1000,30,872360,338,63.285
I,9,810353,vowelstep7.wav,None,1000,30,874360,338,65.285
I,9,810353,sinestep5.wav,None,1000,30,876360,348,67.285
I,9,810353,sinestep5_catch.wav,1,305,30,878360,348,69.285
I,9,810353,vowelstep7.wav,None,1000,30,880360,1042,71.285
I,9,810353,vowelstep5.wav,None,1000,30,882360,347,73.285
I,9,810353,sinestep3.wav,None,1000,30,884360,347,75.285
I,9,810353,vowelstep1.wav,None,1000,30,886360,337,77.285
I,9,810353,sinestep3.wav,None,1000,30,888361,337,79.285
I,9,810353,sinestep5.wav,None,1000,30,890361,336,81.285
I,9,810353,sinestep5.wav,None,1000,30,892360,344,83.285
I,9,810353,vowelstep5.wav,None,1000,30,894360,346,85.285
I,9,810353,vowelstep7.wav,None,1000,30,896360,346,87.285
I,9,810353,sinestep3.wav,None,1000,30,898360,356,89.285
I,9,810353,vowelstep3.wav,None,1000,30,900360,336,91.285
I,9,810353,sinestep3.wav,None,1000,30,902360,336,93.285
I,9,810353,vowelstep5.wav,None,1000,30,904361,336,95.285
I,9,810353,sinestep7.wav,None,1000,30,906361,341,97.285
I,9,810353,sinestep3_catch.wav,2,161,30,908361,345,99.285
I,9,810353,sinestep1_catch.wav,2,277,30,910361,1183,101.285
I,9,810353,vowelstep3.wav,None,1000,30,912361,1078,103.285
I,9,810353,vowelstep3.wav,None,1000,30,914360,335,105.285
I,9,810353,vowelstep5.wav,None,1000,30,916360,333,107.285
I,9,810353,sinestep5.wav,None,1000,30,918360,335,109.285
I,9,810353,vowelstep5.wav,None,1000,30,920360,334,111.285
I,9,810353,vowelstep5.wav,None,1000,30,922361,345,113.285
I,9,810353,vowelstep1.wav,None,1000,30,924361,344,115.285
I,9,810353,vowelstep1_catch.wav,2,95,30,926361,354,117.285
I,9,810353,sinestep7.wav,None,1000,30,928361,1238,119.285
I,9,810353,vowelstep3.wav,None,1000,30,930361,332,121.285
I,9,810353,sinestep7.wav,None,1000,30,932361,331,123.285
I,9,810353,sinestep7.wav,None,1000,30,934361,332,125.285
I,9,810353,vowelstep7.wav,None,1000,30,936361,344,127.285
I,9,810353,vowelstep3.wav,None,1000,30,938360,344,129.285
I,9,810353,sinestep5.wav,None,1000,30,940361,354,131.285
I,9,810353,sinestep5.wav,None,1000,30,942361,322,133.285
I,9,810353,vowelstep3.wav,None,1000,30,944361,332,135.285
I,9,810353,sinestep5.wav,None,1000,30,946361,332,137.285
I,9,810353,sinestep1.wav,None,1000,30,948361,332,139.285
I,9,810353,vowelstep7.wav,None,1000,30,950361,337,141.285
I,9,810353,silence.wav,None,1000,30,952361,334,143.285
I,9,810353,vowelstep7.wav,None,1000,30,954361,339,145.285
I,9,810353,silence.wav,None,1000,30,956361,352,147.285
I,9,810353,sinestep1.wav,None,1000,30,958362,331,149.285
I,9,810353,vowelstep1.wav,None,1000,30,960362,331,151.285
I,9,810353,vowelstep3.wav,None,1000,30,962361,332,153.285
I,9,810353,silence.wav,None,1000,30,964361,341,155.285
I,9,810353,silence.wav,None,1000,30,966361,341,157.285
I,9,810353,vowelstep1.wav,None,1000,30,968361,352,159.285
I,9,810353,sinestep1.wav,None,1000,30,970361,321,161.285
I,9,810353,vowelstep3_catch.wav,2,66,30,972361,352,163.285
I,9,810353,sinestep1.wav,None,1000,30,974362,1264,165.285
I,9,810353,vowelstep5.wav,None,1000,30,976362,340,167.285
I,9,810353,vowelstep5_catch.wav,2,125,30,978362,341,169.285
I,9,810353,sinestep1.wav,None,1000,30,980362,1215,171.285
I,9,810353,silence.wav,None,1000,30,982362,340,173.285
I,9,810353,vowelstep5.wav,None,1000,30,984361,346,175.285
I,9,810353,sinestep3.wav,None,1000,30,986361,348,177.285
I,9,810353,sinestep3.wav,None,1000,30,988361,350,179.285
I,9,810353,silence.wav,None,1000,30,990361,360,181.285
I,9,810353,silence.wav,None,1000,30,992362,340,183.285
I,9,810353,vowelstep3.wav,None,1000,30,994362,339,185.285
I,9,810353,vowelstep7.wav,None,1000,30,996362,338,187.285
I,9,810353,vowelstep7.wav,None,1000,30,998362,345,189.285
I,9,810353,silence.wav,None,1000,30,1000362,349,191.285
I,9,810353,sinestep3.wav,None,1000,30,1002362,349,193.285
I,9,810353,sinestep3.wav,None,1000,30,1004362,329,195.285
I,9,810353,vowelstep5.wav,None,1000,30,1006362,339,197.285
I,9,810353,vowelstep1.wav,None,1000,30,1008361,339,199.285
I,9,810353,vowelstep1.wav,None,1000,30,1010362,338,201.285
I,9,810353,sinestep5.wav,None,1000,30,1012362,348,203.285
I,9,810353,silence.wav,None,1000,30,1014362,344,205.285
I,9,810353,sinestep5.wav,None,1000,30,1016362,348,207.285
I,9,810353,sinestep7.wav,None,1000,30,1018362,357,209.285
I,9,810353,sinestep1.wav,None,1000,30,1020362,339,211.285
I,9,810353,sinestep5.wav,None,1000,30,1022362,338,213.285
I,9,810353,vowelstep5.wav,None,1000,30,1024362,338,215.285
I,9,810353,sinestep7.wav,None,1000,30,1026362,347,217.285
I,9,810353,sinestep5.wav,None,1000,30,1028363,347,219.285
I,9,810353,sinestep3.wav,None,1000,30,1030362,347,221.285
I,9,810353,silence.wav,None,1000,30,1032362,328,223.285
I,9,810353,vowelstep7_catch.wav,2,150,30,1034362,338,225.285
I,9,810353,sinestep7.wav,None,1000,30,1036362,1186,227.285
I,9,810353,sinestep7.wav,None,1000,30,1038362,337,229.285
I,9,810353,sinestep3.wav,None,1000,30,1040362,347,231.285
I,9,810353,vowelstep3.wav,None,1000,30,1042362,346,233.285
I,9,810353,silence.wav,None,1000,30,1044363,347,235.285
I,9,810353,sinestep3.wav,None,1000,30,1046363,356,237.285
I,9,810353,sinestep5.wav,None,1000,30,1048363,336,239.285
I,9,810353,silence.wav,None,1000,30,1050363,336,241.285
I,9,810353,vowelstep3.wav,None,1000,30,1052363,336,243.285
I,9,810353,sinestep1.wav,None,1000,30,1054362,336,245.285
I,9,810353,sinestep1.wav,None,1000,30,1056362,346,247.285
I,9,810353,sinestep7.wav,None,1000,30,1058362,346,249.285
I,9,810353,vowelstep7.wav,None,1000,30,1060362,356,251.285
I,9,810353,vowelstep5.wav,None,1000,30,1062363,333,253.285
I,9,810353,silence.wav,None,1000,30,1064363,335,255.285
I,9,810353,sinestep3.wav,None,1000,30,1066363,335,257.285
I,9,810353,vowelstep1.wav,None,1000,30,1068363,345,259.285
I,9,810353,vowelstep1.wav,None,1000,30,1070363,345,261.285
I,9,810353,silence.wav,None,1000,30,1072363,345,263.285
I,9,810353,vowelstep3.wav,None,1000,30,1074363,345,265.285
I,9,810353,silence.wav,None,1000,30,1076362,325,267.285
I,9,810353,silence.wav,None,1000,30,1078362,334,269.285
I,9,810353,sinestep7.wav,None,1000,30,1080363,335,271.285
I,9,810353,sinestep7.wav,None,1000,30,1082363,334,273.285
I,9,810353,vowelstep5.wav,None,1000,30,1084363,343,275.285
I,9,810353,silence.wav,None,1000,30,1086363,343,277.285
I,9,810353,silence.wav,None,1000,30,1088363,343,279.285
I,9,810353,sinestep1.wav,None,1000,30,1090363,354,281.285
I,9,810353,silence.wav,None,1000,30,1092363,334,283.285
I,9,810353,vowelstep7.wav,None,1000,30,1094363,333,285.285
I,9,810353,vowelstep5_catch.wav,1,117,30,1096363,334,287.285
I,9,810353,sinestep7.wav,None,1000,30,1098364,1225,289.285
I,9,810353,sinestep1.wav,None,1000,30,1100363,342,291.285
I,9,810353,vowelstep3_catch.wav,1,71,30,1102363,343,293.285
I,9,810353,sinestep1.wav,None,1000,30,1104363,1251,295.285
I,9,810353,vowelstep7.wav,None,1000,30,1106363,331,297.285
I,9,810353,sinestep3.wav,None,1000,30,1108363,332,299.285
I,9,810353,vowelstep5.wav,None,1000,30,1110363,331,301.285
I,9,810353,vowelstep1_catch.wav,1,113,30,1112363,343,303.285
I,9,810353,vowelstep7.wav,None,1000,30,1114364,1229,305.285
I,9,810353,vowelstep5.wav,None,1000,30,1116364,340,307.285
I,9,810353,sinestep1_catch.wav,1,100,30,1118364,351,309.285
I,9,810353,silence.wav,None,1000,30,1120364,1231,311.285
I,9,810353,sinestep7.wav,None,1000,30,1122364,332,313.285
I,9,810353,silence.wav,None,1000,30,1124363,331,315.285
I,9,810353,vowelstep1.wav,None,1000,30,1126363,342,317.285
I,9,810353,sinestep7.wav,None,1000,30,1128363,342,319.285