block,count_main_sequence,first_trial_timestamp,fname,response_catch_response,response_time_catch_response,subject_nr,time_stimulus,time_to_pad,timing
P,NA,258238,vowelstep1_catch.wav,None,1000,12,258253,0,
P,NA,258238,sinestep7_catch.wav,None,1000,12,260253,431,
P,NA,258238,vowelstep5_catch.wav,3,331,12,262253,434,
P,NA,258238,sinestep7.wav,3,814,12,264253,1112,
P,NA,258238,sinestep7.wav,3,276,12,266254,629,
P,NA,258238,sinestep3.wav,3,251,12,268254,1166,
P,NA,258238,sinestep1.wav,3,268,12,270254,1155,
P,NA,258238,vowelstep7.wav,3,605,12,272254,1164,
P,NA,258238,vowelstep3.wav,3,366,12,274253,827,
P,NA,258238,silence.wav,None,1000,12,276253,1067,
P,NA,258238,sinestep1.wav,3,815,12,278253,443,
P,NA,258238,vowelstep1.wav,4,925,12,280253,627,
P,NA,258238,sinestep5.wav,3,508,12,282253,517,
P,NA,258238,sinestep1.wav,3,484,12,284254,934,
P,NA,258238,sinestep1.wav,3,308,12,286254,967,
P,NA,258238,vowelstep1.wav,4,329,12,288254,1123,
P,NA,258238,silence.wav,None,1000,12,290254,1103,
P,NA,258238,silence.wav,None,1000,12,292254,432,
P,NA,258238,silence.wav,None,1000,12,294254,442,
P,NA,258238,sinestep3_catch.wav,4,154,12,296254,442,
P,NA,258238,vowelstep7.wav,4,533,12,298253,1263,
P,NA,258238,silence.wav,None,1000,12,300253,888,
P,NA,258238,vowelstep7.wav,4,229,12,302254,431,
P,NA,258238,vowelstep3.wav,4,187,12,304254,1201,
P,NA,258238,silence.wav,None,1000,12,306254,1253,
P,NA,258238,vowelstep1.wav,4,111,12,308254,441,
P,NA,258238,sinestep3.wav,4,471,12,310254,1329,
P,NA,258238,vowelstep1.wav,3,467,12,312254,969,
P,NA,258238,silence.wav,None,1000,12,314254,963,
P,NA,258238,sinestep7.wav,None,1000,12,316254,428,
P,NA,258238,sinestep5_catch.wav,3,362,12,318254,430,
P,NA,258238,silence.wav,None,1000,12,320255,1067,
P,NA,258238,sinestep7.wav,3,193,12,322255,440,
P,NA,258238,sinestep5.wav,3,343,12,324254,1247,
P,NA,258238,sinestep3.wav,3,375,12,326254,1093,
P,NA,258238,sinestep1_catch.wav,3,456,12,328254,1044,
P,NA,258238,vowelstep3_catch.wav,4,517,12,330254,973,
P,NA,258238,vowelstep5_catch.wav,4,317,12,332254,912,
P,NA,258238,vowelstep7.wav,4,493,12,334254,1112,
P,NA,258238,silence.wav,None,1000,12,336255,946,
P,NA,258238,vowelstep7_catch.wav,3,244,12,338255,436,
P,NA,258238,vowelstep3.wav,3,268,12,340255,1192,
P,NA,258238,silence.wav,None,1000,12,342255,1149,
P,NA,258238,sinestep7_catch.wav,3,188,12,344255,428,
P,NA,258238,sinestep7.wav,3,404,12,346255,1239,
P,NA,258238,vowelstep5.wav,3,796,12,348254,1024,
P,NA,258238,vowelstep3.wav,3,662,12,350254,637,
P,NA,258238,sinestep5.wav,3,584,12,352254,776,
P,NA,258238,sinestep5_catch.wav,None,1000,12,354255,854,
P,NA,258238,sinestep3.wav,3,378,12,356255,448,
P,NA,258238,silence.wav,None,1000,12,358255,1049,
P,NA,258238,vowelstep7.wav,3,222,12,360255,427,
P,NA,258238,sinestep3_catch.wav,4,366,12,362255,1205,
P,NA,258238,vowelstep5.wav,4,374,12,364255,1061,
P,NA,258238,silence.wav,None,1000,12,366255,1063,
P,NA,258238,sinestep1.wav,4,283,12,368255,437,
P,NA,258238,vowelstep1.wav,4,338,12,370255,1164,
P,NA,258238,silence.wav,None,1000,12,372255,1079,
P,NA,258238,silence.wav,None,1000,12,374255,425,
P,NA,258238,silence.wav,None,1000,12,376255,322,
P,NA,258238,sinestep1_catch.wav,4,112,12,378255,425,
P,NA,258238,sinestep1.wav,4,276,12,380255,1324,
P,NA,258238,silence.wav,None,1000,12,382255,1160,
P,NA,258238,vowelstep1_catch.wav,4,177,12,384255,436,
P,NA,258238,vowelstep5.wav,4,271,12,386255,1225,
P,NA,258238,sinestep5.wav,4,420,12,388255,1152,
P,NA,258238,vowelstep3.wav,4,405,12,390256,1004,
P,NA,258238,silence.wav,None,1000,12,392256,1019,
P,NA,258238,silence.wav,None,1000,12,394256,435,
P,NA,258238,sinestep7.wav,3,43,12,396255,435,
P,NA,258238,vowelstep5.wav,3,355,12,398255,1402,
P,NA,258238,silence.wav,None,1000,12,400255,1090,
P,NA,258238,vowelstep3_catch.wav,3,154,12,402255,446,
P,NA,258238,silence.wav,None,1000,12,404255,1287,
P,NA,258238,vowelstep5.wav,3,238,12,406256,455,
P,NA,258238,vowelstep5_catch.wav,3,118,12,408256,1196,
P,NA,258238,vowelstep7_catch.wav,3,187,12,410256,1315,
P,NA,258238,sinestep3.wav,3,334,12,412256,1247,
P,NA,258238,vowelstep5.wav,3,308,12,414256,1110,
P,NA,258238,vowelstep3.wav,3,276,12,416256,1136,
P,NA,258238,silence.wav,None,1000,12,418256,1178,
P,NA,258238,sinestep3.wav,3,147,12,420255,434,
P,NA,258238,silence.wav,None,1000,12,422255,1286,
P,NA,258238,sinestep7_catch.wav,3,117,12,424256,434,
P,NA,258238,sinestep5_catch.wav,3,194,12,426256,1315,
P,NA,258238,sinestep5.wav,3,280,12,428256,1249,
P,NA,258238,sinestep5.wav,3,238,12,430256,1163,
P,NA,258238,vowelstep7.wav,3,440,12,432256,1203,
P,NA,258238,sinestep3_catch.wav,3,746,12,434256,983,
P,NA,258238,vowelstep1.wav,3,332,12,436256,684,
F,0,851166,sinestep1.wav,None,1000,12,851179,0,1.285
F,0,851166,vowelstep5.wav,None,1000,12,853179,331,3.285
F,0,851166,vowelstep3.wav,None,1000,12,855179,336,5.285
F,0,851166,sinestep5.wav,None,1000,12,857179,331,7.285
F,0,851166,vowelstep7.wav,None,1000,12,859179,344,9.285
F,0,851166,silence.wav,None,1000,12,861180,342,11.285
F,0,851166,vowelstep5.wav,None,1000,12,863180,341,13.285
F,0,851166,sinestep3.wav,None,1000,12,865180,355,15.285
F,0,851166,sinestep3.wav,None,1000,12,867180,335,17.285
F,0,851166,silence.wav,None,1000,12,869180,335,19.285
F,0,851166,vowelstep7.wav,None,1000,12,871180,335,21.285
F,0,851166,vowelstep7.wav,None,1000,12,873180,343,23.285
F,0,851166,vowelstep1_catch.wav,3,463,12,875179,342,25.285
F,0,851166,vowelstep3_catch.wav,3,99,12,877179,882,27.285
F,0,851166,vowelstep1.wav,None,1000,12,879180,1255,29.285
F,0,851166,sinestep5.wav,None,1000,12,881180,333,31.285
F,0,851166,sinestep5.wav,None,1000,12,883180,334,33.285
F,0,851166,vowelstep7.wav,None,1000,12,885180,335,35.285
F,0,851166,sinestep3.wav,None,1000,12,887180,344,37.285
F,0,851166,sinestep7.wav,None,1000,12,889180,341,39.285
F,0,851166,vowelstep5_catch.wav,3,172,12,891180,340,41.285
F,0,851166,sinestep1.wav,None,1000,12,893180,1175,43.285
F,0,851166,vowelstep7_catch.wav,3,256,12,895180,325,45.285
F,0,851166,vowelstep3.wav,None,1000,12,897181,1072,47.285
F,0,851166,sinestep1.wav,None,1000,12,899180,333,49.285
F,0,851166,sinestep7.wav,None,1000,12,901180,343,51.285
F,0,851166,silence.wav,None,1000,12,903180,334,53.285
F,0,851166,sinestep7.wav,None,1000,12,905180,344,55.285
F,0,851166,vowelstep1.wav,None,1000,12,907180,344,57.285
F,0,851166,vowelstep3.wav,None,1000,12,909180,250,59.285
F,0,851166,vowelstep7_catch.wav,3,252,12,911180,320,61.285
F,0,851166,sinestep5.wav,None,1000,12,913181,1052,63.285
F,0,851166,sinestep3.wav,None,1000,12,915181,332,65.285
F,0,851166,vowelstep3.wav,None,1000,12,917181,343,67.285
F,0,851166,silence.wav,None,1000,12,919181,337,69.285
F,0,851166,vowelstep1.wav,3,324,12,921181,342,71.285
F,0,851166,vowelstep1.wav,None,1000,12,923181,1027,73.285
F,0,851166,vowelstep5_catch.wav,3,205,12,925180,333,75.285
F,0,851166,silence.wav,None,1000,12,927180,1126,77.285
F,0,851166,vowelstep3.wav,None,1000,12,929180,332,79.285
F,0,851166,vowelstep5.wav,None,1000,12,931181,343,81.285
F,0,851166,vowelstep3_catch.wav,3,154,12,933181,341,83.285
F,0,851166,vowelstep3.wav,None,1000,12,935181,1180,85.285
F,0,851166,sinestep7.wav,None,1000,12,937181,321,87.285
F,0,851166,vowelstep1.wav,None,1000,12,939181,332,89.285
F,0,851166,sinestep1.wav,None,1000,12,941181,330,91.285
F,0,851166,vowelstep1_catch.wav,3,409,12,943181,341,93.285
F,0,851166,vowelstep5.wav,None,1000,12,945181,927,95.285
F,0,851166,sinestep7.wav,None,1000,12,947180,342,97.285
F,0,851166,vowelstep7.wav,None,1000,12,949181,341,99.285
F,0,851166,vowelstep3.wav,None,1000,12,951181,350,101.285
F,0,851166,sinestep3.wav,None,1000,12,953181,326,103.285
F,0,851166,silence.wav,None,1000,12,955181,330,105.285
F,0,851166,sinestep1.wav,None,1000,12,957181,329,107.285
F,0,851166,sinestep1.wav,None,1000,12,959181,340,109.285
F,0,851166,silence.wav,None,1000,12,961181,340,111.285
F,0,851166,sinestep7.wav,3,182,12,963181,337,113.285
F,0,851166,vowelstep3.wav,None,1000,12,965181,1136,115.285
F,0,851166,sinestep3.wav,None,1000,12,967182,327,117.285
F,0,851166,vowelstep3.wav,None,1000,12,969182,324,119.285
F,0,851166,vowelstep7.wav,None,1000,12,971182,335,121.285
F,0,851166,vowelstep7.wav,None,1000,12,973181,334,123.285
F,0,851166,vowelstep5.wav,None,1000,12,975181,339,125.285
F,0,851166,sinestep1.wav,None,1000,12,977181,339,127.285
F,0,851166,silence.wav,None,1000,12,979181,319,129.285
F,0,851166,sinestep1.wav,None,1000,12,981181,329,131.285
F,0,851166,sinestep3.wav,None,1000,12,983182,324,133.285
F,0,851166,sinestep1_catch.wav,3,73,12,985182,327,135.285
F,0,851166,sinestep3.wav,None,1000,12,987182,1263,137.285
F,0,851166,sinestep3.wav,None,1000,12,989182,338,139.285
F,0,851166,silence.wav,None,1000,12,991182,336,141.285
F,0,851166,silence.wav,None,1000,12,993182,348,143.285
F,0,851166,sinestep7.wav,None,1000,12,995182,328,145.285
F,0,851166,sinestep5.wav,None,1000,12,997181,328,147.285
F,0,851166,vowelstep1.wav,None,1000,12,999181,328,149.285
F,0,851166,sinestep7.wav,None,1000,12,1001182,333,151.285
F,0,851166,silence.wav,None,1000,12,1003182,338,153.285
F,0,851166,sinestep3_catch.wav,3,141,12,1005182,335,155.285
F,0,851166,vowelstep5.wav,None,1000,12,1007182,1175,157.285
F,0,851166,sinestep3.wav,None,1000,12,1009182,317,159.285
F,0,851166,vowelstep5.wav,None,1000,12,1011182,319,161.285
F,0,851166,sinestep3.wav,None,1000,12,1013182,327,163.285
F,0,851166,vowelstep3.wav,None,1000,12,1015182,333,165.285
F,0,851166,vowelstep1.wav,None,1000,12,1017182,337,167.285
F,0,851166,sinestep5.wav,None,1000,12,1019183,334,169.285
F,0,851166,vowelstep5.wav,None,1000,12,1021182,332,171.285
F,0,851166,vowelstep1.wav,None,1000,12,1023182,326,173.285
F,0,851166,vowelstep1.wav,None,1000,12,1025182,325,175.285
F,0,851166,sinestep7.wav,None,1000,12,1027182,325,177.285
F,0,851166,vowelstep1.wav,None,1000,12,1029182,326,179.285
F,0,851166,sinestep5.wav,None,1000,12,1031182,336,181.285
F,0,851166,vowelstep7.wav,None,1000,12,1033182,333,183.285
F,0,851166,sinestep1.wav,None,1000,12,1035182,343,185.285
F,0,851166,vowelstep7.wav,None,1000,12,1037183,314,187.285
F,0,851166,sinestep5.wav,None,1000,12,1039183,325,189.285
F,0,851166,vowelstep5.wav,None,1000,12,1041183,324,191.285
F,0,851166,silence.wav,None,1000,12,1043183,325,193.285
F,0,851166,sinestep7.wav,None,1000,12,1045182,335,195.285
F,0,851166,vowelstep5.wav,None,1000,12,1047182,329,197.285
F,0,851166,vowelstep7.wav,None,1000,12,1049182,336,199.285
F,0,851166,silence.wav,None,1000,12,1051182,337,201.285
F,0,851166,vowelstep1.wav,None,1000,12,1053183,344,203.285
F,0,851166,vowelstep7.wav,None,1000,12,1055183,352,205.285
F,0,851166,vowelstep7.wav,None,1000,12,1057183,353,207.285
F,0,851166,vowelstep3.wav,None,1000,12,1059183,334,209.285
F,0,851166,vowelstep3.wav,None,1000,12,1061183,333,211.285
F,0,851166,silence.wav,None,1000,12,1063183,342,213.285
F,0,851166,sinestep7.wav,None,1000,12,1065183,339,215.285
F,0,851166,sinestep1.wav,None,1000,12,1067183,344,217.285
F,0,851166,silence.wav,None,1000,12,1069182,341,219.285
F,0,851166,vowelstep1.wav,None,1000,12,1071183,322,221.285
F,0,851166,sinestep5_catch.wav,3,146,12,1073183,329,223.285
F,0,851166,sinestep1.wav,None,1000,12,1075183,1185,225.285
F,0,851166,silence.wav,None,1000,12,1077183,342,227.285
F,0,851166,sinestep7.wav,None,1000,12,1079183,342,229.285
F,0,851166,sinestep7.wav,None,1000,12,1081183,338,231.285
F,0,851166,silence.wav,None,1000,12,1083183,343,233.285
F,0,851166,vowelstep5.wav,None,1000,12,1085183,330,235.285
F,0,851166,sinestep7.wav,None,1000,12,1087183,333,237.285
F,0,851166,sinestep5.wav,None,1000,12,1089184,333,239.285
F,0,851166,sinestep5.wav,None,1000,12,1091184,331,241.285
F,0,851166,silence.wav,None,1000,12,1093183,339,243.285
F,0,851166,vowelstep3.wav,None,1000,12,1095183,342,245.285
F,0,851166,vowelstep3.wav,None,1000,12,1097183,341,247.285
F,0,851166,silence.wav,None,1000,12,1099183,322,249.285
F,0,851166,sinestep1.wav,None,1000,12,1101183,331,251.285
F,0,851166,sinestep1.wav,None,1000,12,1103183,331,253.285
F,0,851166,vowelstep5.wav,None,1000,12,1105183,332,255.285
F,0,851166,silence.wav,None,1000,12,1107184,340,257.285
F,0,851166,sinestep5.wav,None,1000,12,1109184,341,259.285
F,0,851166,sinestep5.wav,None,1000,12,1111184,340,261.285
F,0,851166,sinestep5.wav,None,1000,12,1113184,350,263.285
F,0,851166,sinestep7.wav,None,1000,12,1115184,330,265.285
F,0,851166,sinestep7_catch.wav,3,289,12,1117183,330,267.285
F,0,851166,sinestep7_catch.wav,3,141,12,1119183,1041,269.285
F,0,851166,sinestep1.wav,None,1000,12,1121183,1188,271.285
F,0,851166,vowelstep7.wav,None,1000,12,1123184,339,273.285
F,0,851166,sinestep3.wav,None,1000,12,1125184,340,275.285
F,0,851166,sinestep3.wav,None,1000,12,1127184,345,277.285
F,0,851166,silence.wav,None,1000,12,1129184,329,279.285
F,0,851166,sinestep5_catch.wav,3,221,12,1131184,324,281.285
F,0,851166,sinestep5.wav,None,1000,12,1133184,1108,283.285
F,0,851166,silence.wav,None,1000,12,1135184,337,285.285
F,0,851166,vowelstep5.wav,None,1000,12,1137184,339,287.285
F,0,851166,silence.wav,None,1000,12,1139184,339,289.285
F,0,851166,sinestep1.wav,None,1000,12,1141184,350,291.285
F,0,851166,sinestep3.wav,None,1000,12,1143184,327,293.285
F,0,851166,vowelstep3.wav,None,1000,12,1145184,328,295.285
F,0,851166,silence.wav,None,1000,12,1147184,328,297.285
F,0,851166,sinestep5.wav,None,1000,12,1149184,330,299.285
F,0,851166,vowelstep5.wav,None,1000,12,1151184,335,301.285
F,0,851166,vowelstep5.wav,None,1000,12,1153184,336,303.285
F,0,851166,vowelstep1.wav,None,1000,12,1155184,338,305.285
F,0,851166,sinestep3.wav,3,387,12,1157184,327,307.285
F,0,851166,silence.wav,None,1000,12,1159185,941,309.285
F,0,851166,sinestep3_catch.wav,3,237,12,1161185,324,311.285
F,0,851166,vowelstep1.wav,None,1000,12,1163185,1091,313.285
F,0,851166,vowelstep7.wav,None,1000,12,1165185,336,315.285
F,0,851166,vowelstep7.wav,None,1000,12,1167184,338,317.285
F,0,851166,vowelstep1.wav,None,1000,12,1169184,336,319.285
C,1,1230508,sinestep1.wav,None,1000,12,1230519,0,1.285
C,1,1230508,vowelstep1.wav,None,1000,12,1232519,344,3.285
C,1,1230508,sinestep1.wav,None,1000,12,1234519,345,5.285
C,1,1230508,sinestep1.wav,None,1000,12,1236519,343,7.285
C,1,1230508,vowelstep1.wav,None,1000,12,1238519,355,9.285
C,1,1230508,sinestep1.wav,None,1000,12,1240519,335,11.285
C,1,1230508,sinestep7.wav,None,1000,12,1242519,333,13.285
C,1,1230508,vowelstep7.wav,None,1000,12,1244519,335,15.285
C,1,1230508,vowelstep3.wav,None,1000,12,1246519,345,17.285
C,1,1230508,vowelstep5.wav,None,1000,12,1248519,344,19.285
C,1,1230508,silence.wav,None,1000,12,1250519,340,21.285
C,1,1230508,sinestep3.wav,None,1000,12,1252519,355,23.285
C,1,1230508,vowelstep5.wav,None,1000,12,1254519,324,25.285
C,1,1230508,sinestep1.wav,None,1000,12,1256519,335,27.285
C,1,1230508,vowelstep1.wav,None,1000,12,1258519,319,29.285
C,1,1230508,vowelstep7.wav,None,1000,12,1260519,344,31.285
C,1,1230508,vowelstep3.wav,None,1000,12,1262519,342,33.285
C,1,1230508,sinestep1.wav,None,1000,12,1264520,343,35.285
C,1,1230508,sinestep5.wav,None,1000,12,1266520,343,37.285
C,1,1230508,silence.wav,None,1000,12,1268520,333,39.285
C,1,1230508,vowelstep7.wav,None,1000,12,1270520,333,41.285
C,1,1230508,vowelstep5.wav,None,1000,12,1272519,332,43.285
C,1,1230508,sinestep5.wav,None,1000,12,1274519,332,45.285
C,1,1230508,silence.wav,None,1000,12,1276519,343,47.285
C,1,1230508,sinestep5.wav,None,1000,12,1278519,343,49.285
C,1,1230508,sinestep1.wav,None,1000,12,1280520,342,51.285
C,1,1230508,silence.wav,None,1000,12,1282520,328,53.285
C,1,1230508,vowelstep1.wav,None,1000,12,1284520,332,55.285
C,1,1230508,vowelstep1.wav,None,1000,12,1286520,330,57.285
C,1,1230508,sinestep1.wav,None,1000,12,1288520,333,59.285
C,1,1230508,silence.wav,None,1000,12,1290520,342,61.285
C,1,1230508,vowelstep5.wav,None,1000,12,1292520,342,63.285
C,1,1230508,vowelstep3.wav,None,1000,12,1294520,352,65.285
C,1,1230508,vowelstep3.wav,None,1000,12,1296519,322,67.285
C,1,1230508,vowelstep7.wav,None,1000,12,1298520,332,69.285
C,1,1230508,silence.wav,None,1000,12,1300520,331,71.285
C,1,1230508,vowelstep3.wav,None,1000,12,1302520,331,73.285
C,1,1230508,silence.wav,None,1000,12,1304520,341,75.285
C,1,1230508,sinestep5.wav,None,1000,12,1306520,339,77.285
C,1,1230508,vowelstep7.wav,None,1000,12,1308520,339,79.285
C,1,1230508,vowelstep1_catch.wav,3,312,12,1310520,351,81.285
C,1,1230508,vowelstep3.wav,None,1000,12,1312520,1018,83.285
C,1,1230508,sinestep7.wav,None,1000,12,1314520,327,85.285
C,1,1230508,vowelstep3.wav,None,1000,12,1316521,330,87.285
C,1,1230508,sinestep1.wav,None,1000,12,1318521,339,89.285
C,1,1230508,sinestep7.wav,None,1000,12,1320520,340,91.285
C,1,1230508,sinestep7.wav,None,1000,12,1322520,347,93.285
C,1,1230508,sinestep3.wav,None,1000,12,1324520,318,95.285
C,1,1230508,vowelstep3_catch.wav,3,293,12,1326520,329,97.285
C,1,1230508,sinestep5.wav,None,1000,12,1328520,1037,99.285
C,1,1230508,sinestep5.wav,None,1000,12,1330520,326,101.285
C,1,1230508,vowelstep3.wav,None,1000,12,1332521,340,103.285
C,1,1230508,vowelstep5.wav,None,1000,12,1334521,338,105.285
C,1,1230508,sinestep1.wav,None,1000,12,1336521,338,107.285
C,1,1230508,sinestep3.wav,None,1000,12,1338521,349,109.285
C,1,1230508,vowelstep5.wav,None,1000,12,1340521,328,111.285
C,1,1230508,vowelstep7.wav,None,1000,12,1342521,329,113.285
C,1,1230508,vowelstep1.wav,None,1000,12,1344520,330,115.285
C,1,1230508,sinestep7.wav,None,1000,12,1346520,335,117.285
C,1,1230508,sinestep3.wav,None,1000,12,1348520,339,119.285
C,1,1230508,vowelstep1.wav,None,1000,12,1350521,336,121.285
C,1,1230508,vowelstep1.wav,None,1000,12,1352521,347,123.285
C,1,1230508,sinestep3.wav,None,1000,12,1354521,328,125.285
C,1,1230508,silence.wav,None,1000,12,1356521,327,127.285
C,1,1230508,silence.wav,None,1000,12,1358521,328,129.285
C,1,1230508,vowelstep5_catch.wav,3,313,12,1360521,337,131.285
C,1,1230508,vowelstep5.wav,None,1000,12,1362521,1020,133.285
C,1,1230508,silence.wav,None,1000,12,1364521,338,135.285
C,1,1230508,sinestep1.wav,None,1000,12,1366521,317,137.285
C,1,1230508,vowelstep7.wav,None,1000,12,1368521,318,139.285
C,1,1230508,sinestep7.wav,None,1000,12,1370521,347,141.285
C,1,1230508,silence.wav,None,1000,12,1372521,346,143.285
C,1,1230508,silence.wav,None,1000,12,1374521,337,145.285
C,1,1230508,sinestep7.wav,None,1000,12,1376521,336,147.285
C,1,1230508,vowelstep1.wav,None,1000,12,1378521,333,149.285
C,1,1230508,vowelstep5.wav,None,1000,12,1380521,336,151.285
C,1,1230508,vowelstep5.wav,None,1000,12,1382521,326,153.285
C,1,1230508,vowelstep7.wav,None,1000,12,1384521,342,155.285
C,1,1230508,sinestep7.wav,None,1000,12,1386522,324,157.285
C,1,1230508,vowelstep1.wav,None,1000,12,1388522,320,159.285
C,1,1230508,vowelstep3.wav,None,1000,12,1390522,335,161.285
C,1,1230508,sinestep5.wav,None,1000,12,1392521,335,163.285
C,1,1230508,sinestep7.wav,None,1000,12,1394521,335,165.285
C,1,1230508,sinestep1.wav,None,1000,12,1396521,345,167.285
C,1,1230508,sinestep7.wav,None,1000,12,1398521,345,169.285
C,1,1230508,sinestep3.wav,None,1000,12,1400521,344,171.285
C,1,1230508,silence.wav,None,1000,12,1402522,335,173.285
C,1,1230508,vowelstep7.wav,None,1000,12,1404522,334,175.285
C,1,1230508,sinestep7.wav,3,705,12,1406522,335,177.285
C,1,1230508,sinestep5.wav,None,1000,12,1408522,629,179.285
C,1,1230508,vowelstep7.wav,None,1000,12,1410522,341,181.285
C,1,1230508,vowelstep5.wav,None,1000,12,1412522,345,183.285
C,1,1230508,vowelstep3.wav,None,1000,12,1414522,350,185.285
C,1,1230508,vowelstep7_catch.wav,3,294,12,1416522,354,187.285
C,1,1230508,vowelstep3.wav,None,1000,12,1418521,1039,189.285
C,1,1230508,vowelstep5.wav,None,1000,12,1420522,332,191.285
C,1,1230508,vowelstep7.wav,None,1000,12,1422522,343,193.285
C,1,1230508,vowelstep7_catch.wav,3,402,12,1424522,343,195.285
C,1,1230508,vowelstep5_catch.wav,3,344,12,1426522,938,197.285
C,1,1230508,sinestep5.wav,None,1000,12,1428522,997,199.285
C,1,1230508,sinestep3.wav,None,1000,12,1430522,348,201.285
C,1,1230508,vowelstep3_catch.wav,None,1000,12,1432522,334,203.285
C,1,1230508,vowelstep1_catch.wav,None,1000,12,1434522,332,205.285
C,1,1230508,vowelstep5.wav,None,1000,12,1436522,343,207.285
C,1,1230508,vowelstep1.wav,None,1000,12,1438523,343,209.285
C,1,1230508,sinestep1_catch.wav,3,223,12,1440523,341,211.285
C,1,1230508,sinestep3_catch.wav,3,550,12,1442522,1119,213.285
C,1,1230508,sinestep1.wav,3,319,12,1444522,798,215.285
C,1,1230508,vowelstep3.wav,None,1000,12,1446522,1012,217.285
C,1,1230508,sinestep3.wav,None,1000,12,1448522,332,219.285
C,1,1230508,vowelstep5.wav,None,1000,12,1450522,329,221.285
C,1,1230508,sinestep7.wav,None,1000,12,1452522,343,223.285
C,1,1230508,sinestep1.wav,None,1000,12,1454522,340,225.285
C,1,1230508,sinestep5_catch.wav,None,1000,12,1456523,341,227.285
C,1,1230508,vowelstep7.wav,None,1000,12,1458523,321,229.285
C,1,1230508,vowelstep3.wav,None,1000,12,1460523,331,231.285
C,1,1230508,silence.wav,None,1000,12,1462523,330,233.285
C,1,1230508,vowelstep1.wav,None,1000,12,1464523,331,235.285
C,1,1230508,sinestep5.wav,None,1000,12,1466522,338,237.285
C,1,1230508,sinestep1.wav,None,1000,12,1468522,342,239.285
C,1,1230508,vowelstep7.wav,None,1000,12,1470522,339,241.285
C,1,1230508,sinestep3.wav,None,1000,12,1472523,351,243.285
C,1,1230508,sinestep3.wav,None,1000,12,1474523,330,245.285
C,1,1230508,sinestep5.wav,None,1000,12,1476523,330,247.285
C,1,1230508,vowelstep3.wav,None,1000,12,1478523,331,249.285
C,1,1230508,sinestep3.wav,None,1000,12,1480523,340,251.285
C,1,1230508,silence.wav,None,1000,12,1482523,340,253.285
C,1,1230508,sinestep3.wav,None,1000,12,1484523,340,255.285
C,1,1230508,vowelstep1.wav,None,1000,12,1486523,350,257.285
C,1,1230508,silence.wav,None,1000,12,1488523,329,259.285
C,1,1230508,vowelstep1.wav,None,1000,12,1490523,327,261.285
C,1,1230508,silence.wav,None,1000,12,1492523,324,263.285
C,1,1230508,sinestep7.wav,None,1000,12,1494523,333,265.285
C,1,1230508,sinestep3.wav,None,1000,12,1496523,339,267.285
C,1,1230508,vowelstep1.wav,None,1000,12,1498523,337,269.285
C,1,1230508,sinestep7.wav,3,958,12,1500523,338,271.285
C,1,1230508,sinestep7_catch.wav,3,336,12,1502523,371,273.285
C,1,1230508,vowelstep5.wav,None,1000,12,1504523,993,275.285
C,1,1230508,silence.wav,None,1000,12,1506523,329,277.285
C,1,1230508,silence.wav,None,1000,12,1508524,339,279.285
C,1,1230508,sinestep3.wav,None,1000,12,1510524,338,281.285
C,1,1230508,vowelstep7.wav,None,1000,12,1512524,338,283.285
C,1,1230508,sinestep5.wav,None,1000,12,1514524,337,285.285
C,1,1230508,sinestep5.wav,None,1000,12,1516523,327,287.285
C,1,1230508,vowelstep3.wav,None,1000,12,1518523,327,289.285
C,1,1230508,sinestep3.wav,None,1000,12,1520523,328,291.285
C,1,1230508,silence.wav,None,1000,12,1522523,328,293.285
C,1,1230508,silence.wav,None,1000,12,1524523,338,295.285
C,1,1230508,vowelstep7.wav,None,1000,12,1526524,337,297.285
C,1,1230508,silence.wav,None,1000,12,1528524,332,299.285
C,1,1230508,vowelstep5.wav,None,1000,12,1530524,313,301.285
C,1,1230508,sinestep5.wav,None,1000,12,1532524,327,303.285
C,1,1230508,silence.wav,None,1000,12,1534524,322,305.285
C,1,1230508,silence.wav,None,1000,12,1536524,321,307.285
C,1,1230508,silence.wav,None,1000,12,1538523,337,309.285
C,1,1230508,sinestep7_catch.wav,3,671,12,1540523,337,311.285
C,1,1230508,sinestep7.wav,3,354,12,1542524,664,313.285
C,1,1230508,sinestep5_catch.wav,3,225,12,1544524,991,315.285
C,1,1230508,sinestep5.wav,None,1000,12,1546524,1099,317.285
C,1,1230508,sinestep3_catch.wav,3,730,12,1548524,326,319.285
H,2,1609980,sinestep3.wav,None,1000,12,1609991,0,1.285
H,2,1609980,sinestep7.wav,None,1000,12,1611991,344,3.285
H,2,1609980,sinestep3.wav,None,1000,12,1613992,340,5.285
H,2,1609980,vowelstep3.wav,None,1000,12,1615992,343,7.285
H,2,1609980,vowelstep1.wav,None,1000,12,1617992,354,9.285
H,2,1609980,sinestep7.wav,None,1000,12,1619992,332,11.285
H,2,1609980,vowelstep3.wav,None,1000,12,1621992,334,13.285
H,2,1609980,silence.wav,None,1000,12,1623992,334,15.285
H,2,1609980,vowelstep1.wav,None,1000,12,1625992,342,17.285
H,2,1609980,sinestep5.wav,None,1000,12,1627991,344,19.285
H,2,1609980,sinestep7.wav,None,1000,12,1629992,343,21.285
H,2,1609980,vowelstep7.wav,None,1000,12,1631992,342,23.285
H,2,1609980,vowelstep1_catch.wav,3,273,12,1633992,333,25.285
H,2,1609980,sinestep5.wav,None,1000,12,1635992,1059,27.285
H,2,1609980,vowelstep5.wav,None,1000,12,1637992,333,29.285
H,2,1609980,silence.wav,None,1000,12,1639992,328,31.285
H,2,1609980,vowelstep3_catch.wav,4,147,12,1641992,342,33.285
H,2,1609980,sinestep7.wav,None,1000,12,1643992,1195,35.285
H,2,1609980,sinestep5.wav,None,1000,12,1645992,350,37.285
H,2,1609980,silence.wav,None,1000,12,1647993,322,39.285
H,2,1609980,vowelstep3.wav,None,1000,12,1649993,332,41.285
H,2,1609980,vowelstep1.wav,None,1000,12,1651993,332,43.285
H,2,1609980,vowelstep1.wav,None,1000,12,1653992,342,45.285
H,2,1609980,vowelstep3.wav,None,1000,12,1655992,341,47.285
H,2,1609980,sinestep3.wav,None,1000,12,1657992,341,49.285
H,2,1609980,vowelstep1.wav,None,1000,12,1659992,338,51.285
H,2,1609980,sinestep7.wav,None,1000,12,1661992,328,53.285
H,2,1609980,vowelstep7.wav,None,1000,12,1663992,329,55.285
H,2,1609980,vowelstep5_catch.wav,3,315,12,1665993,331,57.285
H,2,1609980,vowelstep5.wav,None,1000,12,1667993,1011,59.285
H,2,1609980,vowelstep3.wav,None,1000,12,1669993,336,61.285
H,2,1609980,vowelstep7_catch.wav,3,312,12,1671993,339,63.285
H,2,1609980,sinestep3.wav,None,1000,12,1673993,1026,65.285
H,2,1609980,sinestep1.wav,None,1000,12,1675992,331,67.285
H,2,1609980,sinestep7.wav,None,1000,12,1677992,327,69.285
H,2,1609980,silence.wav,None,1000,12,1679992,329,71.285
H,2,1609980,vowelstep1.wav,None,1000,12,1681992,325,73.285
H,2,1609980,vowelstep7.wav,None,1000,12,1683993,341,75.285
H,2,1609980,sinestep7.wav,None,1000,12,1685993,338,77.285
H,2,1609980,sinestep1.wav,None,1000,12,1687993,339,79.285
H,2,1609980,sinestep7.wav,None,1000,12,1689993,319,81.285
H,2,1609980,sinestep1.wav,None,1000,12,1691993,329,83.285
H,2,1609980,vowelstep5.wav,None,1000,12,1693993,330,85.285
H,2,1609980,sinestep3.wav,None,1000,12,1695993,328,87.285
H,2,1609980,vowelstep5.wav,None,1000,12,1697993,339,89.285
H,2,1609980,silence.wav,None,1000,12,1699993,339,91.285
H,2,1609980,silence.wav,None,1000,12,1701993,330,93.285
H,2,1609980,sinestep5.wav,None,1000,12,1703993,348,95.285
H,2,1609980,sinestep3.wav,None,1000,12,1705993,327,97.285
H,2,1609980,sinestep7.wav,None,1000,12,1707993,328,99.285
H,2,1609980,sinestep7_catch.wav,3,278,12,1709993,325,101.285
H,2,1609980,silence.wav,None,1000,12,1711993,1049,103.285
H,2,1609980,sinestep3.wav,None,1000,12,1713993,333,105.285
H,2,1609980,silence.wav,None,1000,12,1715993,346,107.285
H,2,1609980,vowelstep1.wav,None,1000,12,1717994,316,109.285
H,2,1609980,vowelstep7.wav,None,1000,12,1719994,327,111.285
H,2,1609980,sinestep5.wav,None,1000,12,1721994,327,113.285
H,2,1609980,silence.wav,None,1000,12,1723994,324,115.285
H,2,1609980,vowelstep7.wav,None,1000,12,1725993,337,117.285
H,2,1609980,vowelstep3.wav,None,1000,12,1727993,337,119.285
H,2,1609980,sinestep5.wav,None,1000,12,1729993,337,121.285
H,2,1609980,sinestep1.wav,None,1000,12,1731993,346,123.285
H,2,1609980,vowelstep3.wav,None,1000,12,1733993,322,125.285
H,2,1609980,vowelstep3.wav,None,1000,12,1735994,327,127.285
H,2,1609980,vowelstep5.wav,None,1000,12,1737994,326,129.285
H,2,1609980,vowelstep1.wav,None,1000,12,1739994,336,131.285
H,2,1609980,vowelstep7.wav,None,1000,12,1741994,337,133.285
H,2,1609980,vowelstep3.wav,None,1000,12,1743994,336,135.285
H,2,1609980,vowelstep5.wav,None,1000,12,1745994,344,137.285
H,2,1609980,vowelstep5.wav,None,1000,12,1747994,327,139.285
H,2,1609980,sinestep7.wav,None,1000,12,1749993,326,141.285
H,2,1609980,vowelstep1.wav,None,1000,12,1751993,326,143.285
H,2,1609980,sinestep3.wav,None,1000,12,1753994,319,145.285
H,2,1609980,sinestep1.wav,None,1000,12,1755994,330,147.285
H,2,1609980,vowelstep1.wav,None,1000,12,1757994,332,149.285
H,2,1609980,sinestep5_catch.wav,3,254,12,1759994,341,151.285
H,2,1609980,sinestep7.wav,None,1000,12,1761994,1061,153.285
H,2,1609980,sinestep3_catch.wav,3,199,12,1763994,323,155.285
H,2,1609980,sinestep7.wav,None,1000,12,1765994,1125,157.285
H,2,1609980,sinestep5.wav,None,1000,12,1767994,335,159.285
H,2,1609980,silence.wav,None,1000,12,1769995,328,161.285
H,2,1609980,sinestep1_catch.wav,3,366,12,1771995,329,163.285
H,2,1609980,vowelstep7.wav,None,1000,12,1773994,973,165.285
H,2,1609980,vowelstep7.wav,None,1000,12,1775994,345,167.285
H,2,1609980,sinestep7.wav,None,1000,12,1777994,339,169.285
H,2,1609980,sinestep3.wav,None,1000,12,1779994,345,171.285
H,2,1609980,sinestep5.wav,None,1000,12,1781994,328,173.285
H,2,1609980,vowelstep1_catch.wav,3,259,12,1783994,334,175.285
H,2,1609980,vowelstep1.wav,None,1000,12,1785994,1075,177.285
H,2,1609980,sinestep3.wav,None,1000,12,1787995,345,179.285
H,2,1609980,sinestep3.wav,None,1000,12,1789995,343,181.285
H,2,1609980,vowelstep5.wav,None,1000,12,1791995,343,183.285
H,2,1609980,sinestep1.wav,None,1000,12,1793995,335,185.285
H,2,1609980,sinestep1.wav,None,1000,12,1795995,332,187.285
H,2,1609980,vowelstep7.wav,None,1000,12,1797994,333,189.285
H,2,1609980,sinestep1.wav,None,1000,12,1799994,331,191.285
H,2,1609980,sinestep5.wav,None,1000,12,1801994,333,193.285
H,2,1609980,vowelstep3_catch.wav,None,1000,12,1803994,343,195.285
H,2,1609980,sinestep1.wav,None,1000,12,1805995,334,197.285
H,2,1609980,silence.wav,None,1000,12,1807995,347,199.285
H,2,1609980,vowelstep1.wav,None,1000,12,1809995,346,201.285
H,2,1609980,vowelstep5_catch.wav,3,479,12,1811995,333,203.285
H,2,1609980,sinestep5.wav,None,1000,12,1813995,845,205.285
H,2,1609980,sinestep1.wav,None,1000,12,1815995,332,207.285
H,2,1609980,silence.wav,None,1000,12,1817995,339,209.285
H,2,1609980,sinestep3.wav,None,1000,12,1819995,342,211.285
H,2,1609980,silence.wav,None,1000,12,1821994,338,213.285
H,2,1609980,vowelstep7_catch.wav,4,227,12,1823995,319,215.285
H,2,1609980,vowelstep5.wav,None,1000,12,1825995,1098,217.285
H,2,1609980,sinestep7.wav,None,1000,12,1827995,331,219.285
H,2,1609980,silence.wav,None,1000,12,1829995,330,221.285
H,2,1609980,sinestep1.wav,None,1000,12,1831995,340,223.285
H,2,1609980,silence.wav,None,1000,12,1833995,341,225.285
H,2,1609980,silence.wav,None,1000,12,1835995,341,227.285
H,2,1609980,silence.wav,None,1000,12,1837995,351,229.285
H,2,1609980,silence.wav,None,1000,12,1839996,329,231.285
H,2,1609980,sinestep5.wav,None,1000,12,1841996,329,233.285
H,2,1609980,silence.wav,None,1000,12,1843996,330,235.285
H,2,1609980,vowelstep3.wav,None,1000,12,1845995,340,237.285
H,2,1609980,silence.wav,None,1000,12,1847995,340,239.285
H,2,1609980,silence.wav,None,1000,12,1849995,340,241.285
H,2,1609980,vowelstep1_catch.wav,3,328,12,1851995,315,243.285
H,2,1609980,vowelstep5.wav,None,1000,12,1853995,992,245.285
H,2,1609980,vowelstep7.wav,None,1000,12,1855995,325,247.285
H,2,1609980,vowelstep3_catch.wav,None,1000,12,1857996,329,249.285
H,2,1609980,vowelstep1.wav,None,1000,12,1859996,338,251.285
H,2,1609980,sinestep3.wav,None,1000,12,1861996,338,253.285
H,2,1609980,vowelstep5_catch.wav,None,1000,12,1863996,339,255.285
H,2,1609980,vowelstep5.wav,None,1000,12,1865996,339,257.285
H,2,1609980,silence.wav,None,1000,12,1867996,327,259.285
H,2,1609980,vowelstep7.wav,None,1000,12,1869996,325,261.285
H,2,1609980,sinestep5.wav,None,1000,12,1871995,327,263.285
H,2,1609980,vowelstep5.wav,None,1000,12,1873995,336,265.285
H,2,1609980,vowelstep7.wav,None,1000,12,1875996,340,267.285
H,2,1609980,vowelstep3.wav,None,1000,12,1877996,336,269.285
H,2,1609980,vowelstep3.wav,None,1000,12,1879996,348,271.285
H,2,1609980,silence.wav,None,1000,12,1881996,327,273.285
H,2,1609980,vowelstep3.wav,None,1000,12,1883996,327,275.285
H,2,1609980,sinestep1.wav,None,1000,12,1885996,329,277.285
H,2,1609980,silence.wav,None,1000,12,1887996,334,279.285
H,2,1609980,sinestep1.wav,None,1000,12,1889996,339,281.285
H,2,1609980,vowelstep3.wav,None,1000,12,1891997,337,283.285
H,2,1609980,silence.wav,None,1000,12,1893997,337,285.285
H,2,1609980,vowelstep5.wav,None,1000,12,1895996,326,287.285
H,2,1609980,vowelstep5.wav,None,1000,12,1897996,322,289.285
H,2,1609980,vowelstep1.wav,None,1000,12,1899996,327,291.285
H,2,1609980,sinestep5.wav,None,1000,12,1901996,319,293.285
H,2,1609980,vowelstep7.wav,None,1000,12,1903996,336,295.285
H,2,1609980,vowelstep1.wav,None,1000,12,1905996,337,297.285
H,2,1609980,vowelstep7.wav,None,1000,12,1907996,336,299.285
H,2,1609980,vowelstep3.wav,None,1000,12,1909997,341,301.285
H,2,1609980,sinestep1.wav,None,1000,12,1911997,323,303.285
H,2,1609980,sinestep5.wav,None,1000,12,1913997,326,305.285
H,2,1609980,vowelstep5.wav,None,1000,12,1915997,326,307.285
H,2,1609980,sinestep3.wav,None,1000,12,1917997,336,309.285
H,2,1609980,vowelstep7.wav,None,1000,12,1919996,331,311.285
H,2,1609980,sinestep7.wav,None,1000,12,1921996,346,313.285
H,2,1609980,sinestep5.wav,None,1000,12,1923996,314,315.285
H,2,1609980,sinestep3.wav,None,1000,12,1925996,326,317.285
H,2,1609980,sinestep1.wav,None,1000,12,1927997,325,319.285
J,3,1988843,sinestep5_catch.wav,3,785,12,1988848,0,1.285
J,3,1988843,sinestep5.wav,None,1000,12,1990848,547,3.285
J,3,1988843,sinestep3.wav,None,1000,12,1992847,332,5.285
J,3,1988843,sinestep1.wav,None,1000,12,1994847,339,7.285
J,3,1988843,sinestep7.wav,None,1000,12,1996847,338,9.285
J,3,1988843,vowelstep3.wav,None,1000,12,1998848,344,11.285
J,3,1988843,sinestep1.wav,None,1000,12,2000848,352,13.285
J,3,1988843,vowelstep5.wav,None,1000,12,2002848,333,15.285
J,3,1988843,vowelstep3.wav,None,1000,12,2004848,329,17.285
J,3,1988843,vowelstep1.wav,None,1000,12,2006848,333,19.285
J,3,1988843,vowelstep1.wav,None,1000,12,2008848,343,21.285
J,3,1988843,sinestep3.wav,None,1000,12,2010848,338,23.285
J,3,1988843,silence.wav,None,1000,12,2012848,343,25.285
J,3,1988843,vowelstep7.wav,None,1000,12,2014849,350,27.285
J,3,1988843,sinestep3.wav,None,1000,12,2016848,322,29.285
J,3,1988843,sinestep7.wav,None,1000,12,2018848,352,31.285
J,3,1988843,silence.wav,None,1000,12,2020848,332,33.285
J,3,1988843,vowelstep5.wav,None,1000,12,2022848,339,35.285
J,3,1988843,sinestep1.wav,None,1000,12,2024848,339,37.285
J,3,1988843,sinestep1_catch.wav,3,859,12,2026848,342,39.285
J,3,1988843,sinestep7.wav,None,1000,12,2028848,488,41.285
J,3,1988843,vowelstep7.wav,None,1000,12,2030848,353,43.285
J,3,1988843,sinestep3_catch.wav,3,224,12,2032849,348,45.285
J,3,1988843,vowelstep3.wav,None,1000,12,2034849,1105,47.285
J,3,1988843,vowelstep7.wav,None,1000,12,2036849,340,49.285
J,3,1988843,sinestep1.wav,None,1000,12,2038849,341,51.285
J,3,1988843,vowelstep3.wav,None,1000,12,2040848,341,53.285
J,3,1988843,vowelstep1.wav,None,1000,12,2042848,341,55.285
J,3,1988843,sinestep5.wav,None,1000,12,2044848,351,57.285
J,3,1988843,sinestep5_catch.wav,3,164,12,2046848,351,59.285
J,3,1988843,sinestep5.wav,None,1000,12,2048848,1197,61.285
J,3,1988843,vowelstep7.wav,None,1000,12,2050849,341,63.285
J,3,1988843,sinestep7.wav,None,1000,12,2052849,339,65.285
J,3,1988843,vowelstep1.wav,None,1000,12,2054849,340,67.285
J,3,1988843,sinestep7_catch.wav,None,1000,12,2056849,346,69.285
J,3,1988843,silence.wav,None,1000,12,2058849,350,71.285
J,3,1988843,vowelstep5.wav,None,1000,12,2060849,345,73.285
J,3,1988843,sinestep5.wav,None,1000,12,2062849,348,75.285
J,3,1988843,sinestep5.wav,None,1000,12,2064848,340,77.285
J,3,1988843,vowelstep3.wav,None,1000,12,2066849,340,79.285
J,3,1988843,vowelstep5.wav,None,1000,12,2068849,339,81.285
J,3,1988843,sinestep3.wav,None,1000,12,2070849,339,83.285
J,3,1988843,silence.wav,None,1000,12,2072849,347,85.285
J,3,1988843,vowelstep3.wav,None,1000,12,2074849,345,87.285
J,3,1988843,vowelstep7.wav,None,1000,12,2076849,355,89.285
J,3,1988843,silence.wav,None,1000,12,2078849,328,91.285
J,3,1988843,sinestep3.wav,None,1000,12,2080849,339,93.285
J,3,1988843,silence.wav,None,1000,12,2082849,339,95.285
J,3,1988843,sinestep1.wav,None,1000,12,2084850,348,97.285
J,3,1988843,sinestep5_catch.wav,None,1000,12,2086850,344,99.285
J,3,1988843,sinestep7.wav,None,1000,12,2088850,345,101.285
J,3,1988843,sinestep5.wav,None,1000,12,2090849,347,103.285
J,3,1988843,sinestep5.wav,None,1000,12,2092849,356,105.285
J,3,1988843,sinestep3.wav,None,1000,12,2094849,338,107.285
J,3,1988843,sinestep3_catch.wav,None,1000,12,2096849,339,109.285
J,3,1988843,sinestep3.wav,None,1000,12,2098849,333,111.285
J,3,1988843,silence.wav,None,1000,12,2100849,348,113.285
J,3,1988843,sinestep1.wav,None,1000,12,2102850,348,115.285
J,3,1988843,silence.wav,None,1000,12,2104850,347,117.285
J,3,1988843,vowelstep3.wav,None,1000,12,2106850,357,119.285
J,3,1988843,vowelstep5.wav,None,1000,12,2108850,330,121.285
J,3,1988843,vowelstep7.wav,None,1000,12,2110850,338,123.285
J,3,1988843,silence.wav,None,1000,12,2112850,335,125.285
J,3,1988843,sinestep1.wav,None,1000,12,2114849,347,127.285
J,3,1988843,sinestep3.wav,None,1000,12,2116849,347,129.285
J,3,1988843,sinestep7.wav,3,318,12,2118849,347,131.285
J,3,1988843,silence.wav,None,1000,12,2120850,1004,133.285
J,3,1988843,sinestep1.wav,None,1000,12,2122850,324,135.285
J,3,1988843,vowelstep7.wav,None,1000,12,2124850,335,137.285
J,3,1988843,sinestep5.wav,None,1000,12,2126850,336,139.285
J,3,1988843,vowelstep1.wav,None,1000,12,2128850,344,141.285
J,3,1988843,vowelstep7.wav,None,1000,12,2130850,341,143.285
J,3,1988843,vowelstep3.wav,None,1000,12,2132850,346,145.285
J,3,1988843,vowelstep3.wav,None,1000,12,2134850,356,147.285
J,3,1988843,sinestep7.wav,None,1000,12,2136851,328,149.285
J,3,1988843,vowelstep5.wav,None,1000,12,2138850,335,151.285
J,3,1988843,silence.wav,None,1000,12,2140850,330,153.285
J,3,1988843,sinestep1.wav,None,1000,12,2142850,335,155.285
J,3,1988843,sinestep3.wav,None,1000,12,2144850,344,157.285
J,3,1988843,silence.wav,None,1000,12,2146850,345,159.285
J,3,1988843,sinestep1.wav,None,1000,12,2148850,354,161.285
J,3,1988843,vowelstep7.wav,None,1000,12,2150850,335,163.285
J,3,1988843,vowelstep7.wav,None,1000,12,2152850,332,165.285
J,3,1988843,sinestep1_catch.wav,None,1000,12,2154851,331,167.285
J,3,1988843,vowelstep1_catch.wav,None,1000,12,2156851,344,169.285
J,3,1988843,vowelstep1.wav,None,1000,12,2158851,342,171.285
J,3,1988843,vowelstep7.wav,None,1000,12,2160851,341,173.285
J,3,1988843,sinestep1.wav,None,1000,12,2162850,343,175.285
J,3,1988843,vowelstep5.wav,None,1000,12,2164850,333,177.285
J,3,1988843,vowelstep5.wav,None,1000,12,2166850,333,179.285
J,3,1988843,sinestep5.wav,None,1000,12,2168850,331,181.285
J,3,1988843,sinestep7.wav,None,1000,12,2170850,341,183.285
J,3,1988843,sinestep7.wav,None,1000,12,2172851,344,185.285
J,3,1988843,sinestep1.wav,None,1000,12,2174851,340,187.285
J,3,1988843,vowelstep1.wav,None,1000,12,2176851,353,189.285
J,3,1988843,silence.wav,None,1000,12,2178851,352,191.285
J,3,1988843,sinestep5.wav,None,1000,12,2180851,332,193.285
J,3,1988843,vowelstep5.wav,None,1000,12,2182851,332,195.285
J,3,1988843,vowelstep1.wav,None,1000,12,2184851,329,197.285
J,3,1988843,vowelstep1.wav,None,1000,12,2186850,342,199.285
J,3,1988843,sinestep3.wav,None,1000,12,2188850,342,201.285
J,3,1988843,sinestep3.wav,None,1000,12,2190851,352,203.285
J,3,1988843,silence.wav,None,1000,12,2192851,318,205.285
J,3,1988843,sinestep5.wav,None,1000,12,2194851,329,207.285
J,3,1988843,vowelstep1.wav,None,1000,12,2196851,332,209.285
J,3,1988843,vowelstep5.wav,None,1000,12,2198851,342,211.285
J,3,1988843,vowelstep3.wav,None,1000,12,2200851,338,213.285
J,3,1988843,vowelstep3.wav,None,1000,12,2202851,342,215.285
J,3,1988843,silence.wav,None,1000,12,2204851,339,217.285
J,3,1988843,sinestep1.wav,None,1000,12,2206852,349,219.285
J,3,1988843,vowelstep3.wav,None,1000,12,2208852,330,221.285
J,3,1988843,sinestep7.wav,None,1000,12,2210851,330,223.285
J,3,1988843,vowelstep7.wav,None,1000,12,2212851,328,225.285
J,3,1988843,silence.wav,None,1000,12,2214851,340,227.285
J,3,1988843,vowelstep5.wav,None,1000,12,2216851,341,229.285
J,3,1988843,silence.wav,None,1000,12,2218851,340,231.285
J,3,1988843,sinestep3.wav,None,1000,12,2220851,320,233.285
J,3,1988843,vowelstep5.wav,None,1000,12,2222851,331,235.285
J,3,1988843,vowelstep3.wav,None,1000,12,2224852,331,237.285
J,3,1988843,vowelstep5.wav,None,1000,12,2226852,339,239.285
J,3,1988843,vowelstep7.wav,None,1000,12,2228852,340,241.285
J,3,1988843,vowelstep1.wav,None,1000,12,2230852,339,243.285
J,3,1988843,sinestep7.wav,None,1000,12,2232852,336,245.285
J,3,1988843,sinestep7.wav,None,1000,12,2234852,329,247.285
J,3,1988843,silence.wav,None,1000,12,2236851,328,249.285
J,3,1988843,vowelstep1.wav,None,1000,12,2238851,331,251.285
J,3,1988843,vowelstep3_catch.wav,None,1000,12,2240851,328,253.285
J,3,1988843,vowelstep1.wav,None,1000,12,2242852,339,255.285
J,3,1988843,vowelstep5_catch.wav,None,1000,12,2244852,339,257.285
J,3,1988843,silence.wav,None,1000,12,2246852,338,259.285
J,3,1988843,sinestep5.wav,None,1000,12,2248852,349,261.285
J,3,1988843,vowelstep1.wav,None,1000,12,2250852,328,263.285
J,3,1988843,sinestep5.wav,None,1000,12,2252852,327,265.285
J,3,1988843,vowelstep3.wav,None,1000,12,2254852,328,267.285
J,3,1988843,sinestep5.wav,None,1000,12,2256852,337,269.285
J,3,1988843,sinestep7.wav,None,1000,12,2258851,334,271.285
J,3,1988843,silence.wav,None,1000,12,2260852,337,273.285
J,3,1988843,vowelstep7_catch.wav,None,1000,12,2262852,345,275.285
J,3,1988843,sinestep3.wav,None,1000,12,2264852,344,277.285
J,3,1988843,vowelstep5.wav,None,1000,12,2266852,348,279.285
J,3,1988843,silence.wav,None,1000,12,2268852,353,281.285
J,3,1988843,silence.wav,None,1000,12,2270852,358,283.285
J,3,1988843,silence.wav,None,1000,12,2272852,336,285.285
J,3,1988843,vowelstep7.wav,None,1000,12,2274852,337,287.285
J,3,1988843,sinestep3.wav,None,1000,12,2276853,337,289.285
J,3,1988843,vowelstep5_catch.wav,None,1000,12,2278853,346,291.285
J,3,1988843,silence.wav,None,1000,12,2280853,342,293.285
J,3,1988843,sinestep7.wav,None,1000,12,2282853,324,295.285
J,3,1988843,vowelstep1.wav,None,1000,12,2284852,326,297.285
J,3,1988843,silence.wav,None,1000,12,2286852,335,299.285
J,3,1988843,sinestep1.wav,None,1000,12,2288852,335,301.285
J,3,1988843,sinestep5.wav,None,1000,12,2290852,346,303.285
J,3,1988843,vowelstep5.wav,None,1000,12,2292852,346,305.285
J,3,1988843,vowelstep3.wav,None,1000,12,2294853,346,307.285
J,3,1988843,sinestep7.wav,None,1000,12,2296853,351,309.285
J,3,1988843,vowelstep7.wav,None,1000,12,2298853,335,311.285
J,3,1988843,vowelstep3_catch.wav,None,1000,12,2300853,331,313.285
J,3,1988843,vowelstep1_catch.wav,None,1000,12,2302853,335,315.285
J,3,1988843,sinestep3.wav,None,1000,12,2304853,343,317.285
J,3,1988843,sinestep1.wav,None,1000,12,2306853,345,319.285
D,4,2366971,sinestep5.wav,None,1000,12,2366987,0,1.285
D,4,2366971,vowelstep1_catch.wav,3,293,12,2368987,339,3.285
D,4,2366971,sinestep7.wav,None,1000,12,2370987,1042,5.285
D,4,2366971,vowelstep3.wav,None,1000,12,2372987,339,7.285
D,4,2366971,vowelstep3_catch.wav,3,259,12,2374987,344,9.285
D,4,2366971,vowelstep5_catch.wav,3,271,12,2376987,1070,11.285
D,4,2366971,sinestep7.wav,None,1000,12,2378987,1056,13.285
D,4,2366971,silence.wav,None,1000,12,2380987,328,15.285
D,4,2366971,vowelstep7_catch.wav,3,189,12,2382988,339,17.285
D,4,2366971,vowelstep7.wav,None,1000,12,2384988,1147,19.285
D,4,2366971,vowelstep3.wav,None,1000,12,2386988,338,21.285
D,4,2366971,vowelstep7_catch.wav,3,673,12,2388988,344,23.285
D,4,2366971,vowelstep5.wav,None,1000,12,2390987,655,25.285
D,4,2366971,sinestep7.wav,None,1000,12,2392987,327,27.285
D,4,2366971,silence.wav,None,1000,12,2394987,329,29.285
D,4,2366971,vowelstep1.wav,None,1000,12,2396987,337,31.285
D,4,2366971,vowelstep1.wav,None,1000,12,2398987,337,33.285
D,4,2366971,vowelstep7.wav,None,1000,12,2400988,332,35.285
D,4,2366971,vowelstep3.wav,None,1000,12,2402988,347,37.285
D,4,2366971,sinestep3.wav,None,1000,12,2404988,324,39.285
D,4,2366971,sinestep1.wav,None,1000,12,2406988,325,41.285
D,4,2366971,vowelstep1.wav,None,1000,12,2408988,320,43.285
D,4,2366971,vowelstep1.wav,None,1000,12,2410988,337,45.285
D,4,2366971,sinestep7.wav,None,1000,12,2412988,336,47.285
D,4,2366971,sinestep3.wav,None,1000,12,2414987,337,49.285
D,4,2366971,vowelstep5_catch.wav,3,268,12,2416988,342,51.285
D,4,2366971,sinestep7.wav,None,1000,12,2418988,1048,53.285
D,4,2366971,vowelstep5.wav,None,1000,12,2420988,323,55.285
D,4,2366971,sinestep3.wav,None,1000,12,2422988,326,57.285
D,4,2366971,sinestep7.wav,None,1000,12,2424988,335,59.285
D,4,2366971,vowelstep3.wav,None,1000,12,2426988,336,61.285
D,4,2366971,vowelstep3.wav,None,1000,12,2428988,336,63.285
D,4,2366971,vowelstep3_catch.wav,None,1000,12,2430988,336,65.285
D,4,2366971,silence.wav,None,1000,12,2432988,321,67.285
D,4,2366971,vowelstep7.wav,None,1000,12,2434989,322,69.285
D,4,2366971,silence.wav,None,1000,12,2436989,324,71.285
D,4,2366971,sinestep1.wav,None,1000,12,2438988,335,73.285
D,4,2366971,vowelstep5.wav,None,1000,12,2440988,335,75.285
D,4,2366971,vowelstep1.wav,None,1000,12,2442988,333,77.285
D,4,2366971,sinestep7.wav,None,1000,12,2444988,335,79.285
D,4,2366971,vowelstep1.wav,None,1000,12,2446988,345,81.285
D,4,2366971,sinestep7.wav,None,1000,12,2448988,324,83.285
D,4,2366971,vowelstep7.wav,None,1000,12,2450988,320,85.285
D,4,2366971,vowelstep5.wav,None,1000,12,2452989,321,87.285
D,4,2366971,vowelstep1.wav,None,1000,12,2454989,334,89.285
D,4,2366971,sinestep5.wav,None,1000,12,2456989,332,91.285
D,4,2366971,sinestep5.wav,None,1000,12,2458989,333,93.285
D,4,2366971,vowelstep3.wav,None,1000,12,2460989,314,95.285
D,4,2366971,silence.wav,None,1000,12,2462988,324,97.285
D,4,2366971,sinestep1.wav,None,1000,12,2464988,321,99.285
D,4,2366971,sinestep1.wav,None,1000,12,2466988,323,101.285
D,4,2366971,sinestep3.wav,None,1000,12,2468989,329,103.285
D,4,2366971,vowelstep1.wav,None,1000,12,2470989,330,105.285
D,4,2366971,sinestep7.wav,None,1000,12,2472989,331,107.285
D,4,2366971,vowelstep3.wav,None,1000,12,2474989,317,109.285
D,4,2366971,silence.wav,None,1000,12,2476989,323,111.285
D,4,2366971,vowelstep5.wav,None,1000,12,2478989,320,113.285
D,4,2366971,vowelstep1.wav,None,1000,12,2480989,318,115.285
D,4,2366971,vowelstep1_catch.wav,3,765,12,2482989,319,117.285
D,4,2366971,vowelstep7.wav,None,1000,12,2484989,566,119.285
D,4,2366971,sinestep5.wav,None,1000,12,2486989,331,121.285
D,4,2366971,vowelstep7.wav,None,1000,12,2488989,312,123.285
D,4,2366971,sinestep1.wav,None,1000,12,2490989,320,125.285
D,4,2366971,sinestep1.wav,None,1000,12,2492989,318,127.285
D,4,2366971,vowelstep3.wav,None,1000,12,2494989,322,129.285
D,4,2366971,sinestep1.wav,None,1000,12,2496989,332,131.285
D,4,2366971,silence.wav,None,1000,12,2498989,332,133.285
D,4,2366971,sinestep3.wav,None,1000,12,2500989,331,135.285
D,4,2366971,silence.wav,None,1000,12,2502989,342,137.285
D,4,2366971,vowelstep3.wav,None,1000,12,2504990,317,139.285
D,4,2366971,vowelstep5.wav,None,1000,12,2506990,320,141.285
D,4,2366971,silence.wav,None,1000,12,2508990,321,143.285
D,4,2366971,sinestep5.wav,None,1000,12,2510989,331,145.285
D,4,2366971,sinestep5.wav,None,1000,12,2512989,331,147.285
D,4,2366971,sinestep1.wav,None,1000,12,2514989,330,149.285
D,4,2366971,vowelstep5.wav,None,1000,12,2516989,335,151.285
D,4,2366971,vowelstep5.wav,None,1000,12,2518989,311,153.285
D,4,2366971,sinestep1_catch.wav,None,1000,12,2520989,318,155.285
D,4,2366971,sinestep5.wav,None,1000,12,2522990,320,157.285
D,4,2366971,vowelstep3.wav,None,1000,12,2524990,329,159.285
D,4,2366971,vowelstep7.wav,None,1000,12,2526990,330,161.285
D,4,2366971,vowelstep3.wav,None,1000,12,2528990,330,163.285
D,4,2366971,sinestep3.wav,None,1000,12,2530990,336,165.285
D,4,2366971,sinestep1.wav,None,1000,12,2532990,309,167.285
D,4,2366971,silence.wav,None,1000,12,2534989,314,169.285
D,4,2366971,sinestep1.wav,None,1000,12,2536989,318,171.285
D,4,2366971,vowelstep1.wav,None,1000,12,2538990,329,173.285
D,4,2366971,vowelstep3.wav,None,1000,12,2540990,325,175.285
D,4,2366971,silence.wav,None,1000,12,2542990,327,177.285
D,4,2366971,sinestep7.wav,None,1000,12,2544990,324,179.285
D,4,2366971,silence.wav,None,1000,12,2546990,332,181.285
D,4,2366971,vowelstep7.wav,None,1000,12,2548990,314,183.285
D,4,2366971,sinestep3.wav,None,1000,12,2550990,318,185.285
D,4,2366971,vowelstep1.wav,None,1000,12,2552990,317,187.285
D,4,2366971,sinestep7.wav,None,1000,12,2554990,328,189.285
D,4,2366971,silence.wav,None,1000,12,2556974,328,191.285
D,4,2366971,sinestep1.wav,None,1000,12,2558991,337,193.285
D,4,2366971,sinestep3.wav,None,1000,12,2560990,307,195.285
D,4,2366971,sinestep5.wav,None,1000,12,2562990,317,197.285
D,4,2366971,vowelstep3.wav,None,1000,12,2564990,314,199.285
D,4,2366971,sinestep5.wav,None,1000,12,2566990,327,201.285
D,4,2366971,sinestep5.wav,None,1000,12,2568990,326,203.285
D,4,2366971,sinestep3.wav,None,1000,12,2570990,326,205.285
D,4,2366971,sinestep3.wav,None,1000,12,2572990,327,207.285
D,4,2366971,sinestep5.wav,None,1000,12,2574974,332,209.285
D,4,2366971,sinestep3_catch.wav,3,244,12,2576991,337,211.285
D,4,2366971,vowelstep7.wav,None,1000,12,2578991,1071,213.285
D,4,2366971,sinestep1.wav,None,1000,12,2580991,309,215.285
D,4,2366971,sinestep7.wav,None,1000,12,2582991,326,217.285
D,4,2366971,vowelstep1.wav,None,1000,12,2584974,325,219.285
D,4,2366971,sinestep5.wav,None,1000,12,2586974,336,221.285
D,4,2366971,silence.wav,None,1000,12,2588990,331,223.285
D,4,2366971,sinestep5_catch.wav,None,1000,12,2590990,334,225.285
D,4,2366971,sinestep5.wav,None,1000,12,2592974,334,227.285
D,4,2366971,silence.wav,None,1000,12,2594991,345,229.285
D,4,2366971,vowelstep7.wav,None,1000,12,2596991,321,231.285
D,4,2366971,sinestep3.wav,None,1000,12,2598991,326,233.285
D,4,2366971,vowelstep5.wav,None,1000,12,2600974,323,235.285
D,4,2366971,vowelstep7.wav,None,1000,12,2602974,335,237.285
D,4,2366971,vowelstep5.wav,None,1000,12,2604974,335,239.285
D,4,2366971,silence.wav,None,1000,12,2606991,335,241.285
D,4,2366971,silence.wav,None,1000,12,2608975,345,243.285
D,4,2366971,silence.wav,None,1000,12,2610975,340,245.285
D,4,2366971,sinestep7.wav,None,1000,12,2612975,337,247.285
D,4,2366971,sinestep5.wav,None,1000,12,2614991,351,249.285
D,4,2366971,sinestep7_catch.wav,3,327,12,2616974,332,251.285
D,4,2366971,vowelstep1.wav,None,1000,12,2618974,1004,253.285
D,4,2366971,vowelstep1.wav,None,1000,12,2620974,335,255.285
D,4,2366971,vowelstep3.wav,None,1000,12,2622974,338,257.285
D,4,2366971,silence.wav,None,1000,12,2624991,344,259.285
D,4,2366971,sinestep5.wav,None,1000,12,2626975,320,261.285
D,4,2366971,vowelstep7.wav,None,1000,12,2628975,343,263.285
D,4,2366971,vowelstep3.wav,None,1000,12,2630975,328,265.285
D,4,2366971,vowelstep7.wav,None,1000,12,2632975,333,267.285
D,4,2366971,vowelstep5.wav,None,1000,12,2634975,331,269.285
D,4,2366971,sinestep1.wav,None,1000,12,2636975,333,271.285
D,4,2366971,sinestep7.wav,None,1000,12,2638975,343,273.285
D,4,2366971,sinestep3.wav,None,1000,12,2640974,343,275.285
D,4,2366971,silence.wav,None,1000,12,2642974,352,277.285
D,4,2366971,sinestep7.wav,None,1000,12,2644975,333,279.285
D,4,2366971,vowelstep5.wav,None,1000,12,2646975,332,281.285
D,4,2366971,sinestep1.wav,None,1000,12,2648975,331,283.285
D,4,2366971,vowelstep1.wav,None,1000,12,2650975,340,285.285
D,4,2366971,sinestep1.wav,None,1000,12,2652975,341,287.285
D,4,2366971,vowelstep5.wav,None,1000,12,2654975,341,289.285
D,4,2366971,silence.wav,None,1000,12,2656975,352,291.285
D,4,2366971,sinestep3.wav,None,1000,12,2658975,325,293.285
D,4,2366971,vowelstep5.wav,None,1000,12,2660975,333,295.285
D,4,2366971,silence.wav,None,1000,12,2662976,326,297.285
D,4,2366971,sinestep3.wav,None,1000,12,2664975,328,299.285
D,4,2366971,vowelstep7.wav,None,1000,12,2666975,339,301.285
D,4,2366971,sinestep7_catch.wav,None,1000,12,2668975,338,303.285
D,4,2366971,sinestep5_catch.wav,None,1000,12,2670975,351,305.285
D,4,2366971,sinestep3.wav,None,1000,12,2672975,351,307.285
D,4,2366971,vowelstep5.wav,None,1000,12,2674975,347,309.285
D,4,2366971,silence.wav,None,1000,12,2676975,351,311.285
D,4,2366971,sinestep3_catch.wav,None,1000,12,2678976,326,313.285
D,4,2366971,silence.wav,None,1000,12,2680976,340,315.285
D,4,2366971,vowelstep7.wav,None,1000,12,2682976,339,317.285
D,4,2366971,silence.wav,None,1000,12,2684976,350,319.285
B,5,2749814,vowelstep5.wav,None,1000,12,2749827,0,1.285
B,5,2749814,silence.wav,None,1000,12,2751827,336,3.285
B,5,2749814,sinestep7.wav,None,1000,12,2753827,338,5.285
B,5,2749814,vowelstep1_catch.wav,3,193,12,2755827,348,7.285
B,5,2749814,vowelstep7.wav,None,1000,12,2757827,1135,9.285
B,5,2749814,vowelstep3.wav,None,1000,12,2759827,329,11.285
B,5,2749814,vowelstep7.wav,None,1000,12,2761826,329,13.285
B,5,2749814,vowelstep5.wav,None,1000,12,2763826,327,15.285
B,5,2749814,vowelstep7.wav,None,1000,12,2765826,339,17.285
B,5,2749814,vowelstep3.wav,None,1000,12,2767827,338,19.285
B,5,2749814,silence.wav,None,1000,12,2769827,314,21.285
B,5,2749814,silence.wav,None,1000,12,2771827,326,23.285
B,5,2749814,sinestep5.wav,None,1000,12,2773827,324,25.285
B,5,2749814,sinestep1.wav,None,1000,12,2775827,328,27.285
B,5,2749814,vowelstep7.wav,None,1000,12,2777827,335,29.285
B,5,2749814,sinestep5.wav,None,1000,12,2779827,337,31.285
B,5,2749814,vowelstep1.wav,None,1000,12,2781827,337,33.285
B,5,2749814,vowelstep7.wav,None,1000,12,2783828,347,35.285
B,5,2749814,vowelstep3.wav,None,1000,12,2785827,326,37.285
B,5,2749814,sinestep5.wav,None,1000,12,2787827,326,39.285
B,5,2749814,vowelstep1.wav,None,1000,12,2789827,321,41.285
B,5,2749814,sinestep3.wav,None,1000,12,2791827,336,43.285
B,5,2749814,vowelstep5.wav,None,1000,12,2793827,334,45.285
B,5,2749814,vowelstep7.wav,None,1000,12,2795827,335,47.285
B,5,2749814,vowelstep3.wav,None,1000,12,2797827,346,49.285
B,5,2749814,sinestep7.wav,None,1000,12,2799827,326,51.285
B,5,2749814,sinestep3.wav,None,1000,12,2801828,326,53.285
B,5,2749814,sinestep1.wav,None,1000,12,2803828,323,55.285
B,5,2749814,sinestep1.wav,None,1000,12,2805828,334,57.285
B,5,2749814,sinestep5.wav,None,1000,12,2807828,335,59.285
B,5,2749814,vowelstep5.wav,None,1000,12,2809827,335,61.285
B,5,2749814,vowelstep3_catch.wav,3,356,12,2811827,344,63.285
B,5,2749814,vowelstep7.wav,None,1000,12,2813827,959,65.285
B,5,2749814,sinestep1.wav,None,1000,12,2815827,325,67.285
B,5,2749814,vowelstep5.wav,None,1000,12,2817827,321,69.285
B,5,2749814,vowelstep5_catch.wav,3,179,12,2819828,336,71.285
B,5,2749814,vowelstep7.wav,None,1000,12,2821828,1150,73.285
B,5,2749814,sinestep3.wav,None,1000,12,2823828,335,75.285
B,5,2749814,vowelstep7_catch.wav,3,404,12,2825828,333,77.285
B,5,2749814,sinestep5.wav,None,1000,12,2827828,940,79.285
B,5,2749814,vowelstep5.wav,None,1000,12,2829828,325,81.285
B,5,2749814,silence.wav,None,1000,12,2831828,318,83.285
B,5,2749814,silence.wav,None,1000,12,2833828,325,85.285
B,5,2749814,vowelstep3.wav,None,1000,12,2835827,334,87.285
B,5,2749814,silence.wav,None,1000,12,2837828,330,89.285
B,5,2749814,sinestep1.wav,None,1000,12,2839828,344,91.285
B,5,2749814,sinestep1.wav,None,1000,12,2841828,313,93.285
B,5,2749814,sinestep5.wav,None,1000,12,2843828,323,95.285
B,5,2749814,vowelstep7.wav,None,1000,12,2845828,318,97.285
B,5,2749814,sinestep5.wav,None,1000,12,2847828,332,99.285
B,5,2749814,sinestep5.wav,None,1000,12,2849828,333,101.285
B,5,2749814,silence.wav,None,1000,12,2851828,333,103.285
B,5,2749814,vowelstep1.wav,None,1000,12,2853829,327,105.285
B,5,2749814,silence.wav,None,1000,12,2855829,340,107.285
B,5,2749814,sinestep1.wav,None,1000,12,2857829,322,109.285
B,5,2749814,vowelstep7.wav,None,1000,12,2859828,322,111.285
B,5,2749814,silence.wav,None,1000,12,2861828,322,113.285
B,5,2749814,sinestep1.wav,None,1000,12,2863828,332,115.285
B,5,2749814,vowelstep3.wav,None,1000,12,2865828,328,117.285
B,5,2749814,vowelstep5.wav,None,1000,12,2867828,341,119.285
B,5,2749814,silence.wav,None,1000,12,2869828,338,121.285
B,5,2749814,sinestep3.wav,None,1000,12,2871829,322,123.285
B,5,2749814,sinestep5.wav,None,1000,12,2873829,319,125.285
B,5,2749814,silence.wav,None,1000,12,2875829,321,127.285
B,5,2749814,vowelstep5.wav,None,1000,12,2877829,331,129.285
B,5,2749814,sinestep3.wav,None,1000,12,2879829,331,131.285
B,5,2749814,sinestep5.wav,None,1000,12,2881829,331,133.285
B,5,2749814,sinestep5.wav,None,1000,12,2883828,341,135.285
B,5,2749814,sinestep7.wav,None,1000,12,2885828,321,137.285
B,5,2749814,sinestep7.wav,None,1000,12,2887828,316,139.285
B,5,2749814,vowelstep5.wav,None,1000,12,2889829,321,141.285
B,5,2749814,sinestep1.wav,None,1000,12,2891829,330,143.285
B,5,2749814,vowelstep7.wav,None,1000,12,2893829,330,145.285
B,5,2749814,sinestep7.wav,None,1000,12,2895829,330,147.285
B,5,2749814,vowelstep5.wav,None,1000,12,2897829,330,149.285
B,5,2749814,vowelstep1.wav,None,1000,12,2899829,320,151.285
B,5,2749814,sinestep3.wav,None,1000,12,2901829,314,153.285
B,5,2749814,silence.wav,None,1000,12,2903829,315,155.285
B,5,2749814,silence.wav,None,1000,12,2905829,321,157.285
B,5,2749814,sinestep7_catch.wav,3,396,12,2907829,329,159.285
B,5,2749814,vowelstep5.wav,None,1000,12,2909829,932,161.285
B,5,2749814,sinestep7.wav,None,1000,12,2911829,339,163.285
B,5,2749814,vowelstep5.wav,None,1000,12,2913829,339,165.285
B,5,2749814,vowelstep3.wav,None,1000,12,2915829,339,167.285
B,5,2749814,silence.wav,None,1000,12,2917829,338,169.285
B,5,2749814,sinestep3.wav,None,1000,12,2919829,329,171.285
B,5,2749814,sinestep7_catch.wav,4,455,12,2921829,325,173.285
B,5,2749814,sinestep3.wav,None,1000,12,2923830,874,175.285
B,5,2749814,sinestep5_catch.wav,4,299,12,2925830,328,177.285
B,5,2749814,vowelstep5.wav,None,1000,12,2927830,1037,179.285
B,5,2749814,silence.wav,None,1000,12,2929830,334,181.285
B,5,2749814,sinestep7.wav,None,1000,12,2931829,346,183.285
B,5,2749814,silence.wav,None,1000,12,2933829,328,185.285
B,5,2749814,sinestep3.wav,None,1000,12,2935829,321,187.285
B,5,2749814,silence.wav,None,1000,12,2937829,328,189.285
B,5,2749814,vowelstep7.wav,None,1000,12,2939829,338,191.285
B,5,2749814,vowelstep3.wav,None,1000,12,2941830,338,193.285
B,5,2749814,vowelstep3.wav,None,1000,12,2943830,337,195.285
B,5,2749814,sinestep7.wav,None,1000,12,2945830,336,197.285
B,5,2749814,sinestep7.wav,None,1000,12,2947830,327,199.285
B,5,2749814,sinestep3.wav,None,1000,12,2949830,327,201.285
B,5,2749814,sinestep3_catch.wav,3,207,12,2951830,327,203.285
B,5,2749814,sinestep1.wav,None,1000,12,2953830,1119,205.285
B,5,2749814,sinestep1.wav,None,1000,12,2955829,337,207.285
B,5,2749814,sinestep3.wav,None,1000,12,2957829,337,209.285
B,5,2749814,silence.wav,None,1000,12,2959830,333,211.285
B,5,2749814,silence.wav,None,1000,12,2961830,341,213.285
B,5,2749814,sinestep5_catch.wav,3,233,12,2963830,326,215.285
B,5,2749814,sinestep7.wav,None,1000,12,2965830,1088,217.285
B,5,2749814,sinestep7.wav,None,1000,12,2967830,322,219.285
B,5,2749814,vowelstep3.wav,None,1000,12,2969830,335,221.285
B,5,2749814,sinestep1_catch.wav,3,298,12,2971830,335,223.285
B,5,2749814,vowelstep5.wav,None,1000,12,2973830,1047,225.285
B,5,2749814,sinestep1.wav,None,1000,12,2975830,316,227.285
B,5,2749814,vowelstep1.wav,None,1000,12,2977831,323,229.285
B,5,2749814,vowelstep1.wav,None,1000,12,2979830,324,231.285
B,5,2749814,sinestep5.wav,None,1000,12,2981830,324,233.285
B,5,2749814,silence.wav,None,1000,12,2983830,334,235.285
B,5,2749814,silence.wav,None,1000,12,2985830,334,237.285
B,5,2749814,vowelstep1.wav,None,1000,12,2987830,335,239.285
B,5,2749814,vowelstep1.wav,None,1000,12,2989830,344,241.285
B,5,2749814,silence.wav,None,1000,12,2991830,325,243.285
B,5,2749814,vowelstep1_catch.wav,3,360,12,2993831,319,245.285
B,5,2749814,sinestep7.wav,None,1000,12,2995831,959,247.285
B,5,2749814,sinestep1.wav,None,1000,12,2997831,333,249.285
B,5,2749814,vowelstep1.wav,None,1000,12,2999831,334,251.285
B,5,2749814,vowelstep3.wav,None,1000,12,3001831,183,253.285
B,5,2749814,sinestep3.wav,None,1000,12,3003830,310,255.285
B,5,2749814,silence.wav,None,1000,12,3005830,323,257.285
B,5,2749814,vowelstep3.wav,None,1000,12,3007830,324,259.285
B,5,2749814,silence.wav,None,1000,12,3009830,330,261.285
B,5,2749814,vowelstep3.wav,None,1000,12,3011831,333,263.285
B,5,2749814,sinestep5.wav,None,1000,12,3013831,330,265.285
B,5,2749814,vowelstep3_catch.wav,3,247,12,3015831,333,267.285
B,5,2749814,sinestep3.wav,None,1000,12,3017831,1095,269.285
B,5,2749814,sinestep1.wav,None,1000,12,3019831,323,271.285
B,5,2749814,vowelstep3.wav,None,1000,12,3021831,322,273.285
B,5,2749814,vowelstep1.wav,None,1000,12,3023831,321,275.285
B,5,2749814,vowelstep5_catch.wav,3,216,12,3025831,327,277.285
B,5,2749814,vowelstep1.wav,None,1000,12,3027831,1116,279.285
B,5,2749814,vowelstep5.wav,None,1000,12,3029831,324,281.285
B,5,2749814,sinestep7.wav,None,1000,12,3031831,342,283.285
B,5,2749814,vowelstep7.wav,None,1000,12,3033831,321,285.285
B,5,2749814,vowelstep1_catch.wav,3,734,12,3035831,322,287.285
B,5,2749814,sinestep1.wav,None,1000,12,3037831,586,289.285
B,5,2749814,vowelstep1.wav,None,1000,12,3039831,332,291.285
B,5,2749814,sinestep5.wav,None,1000,12,3041831,332,293.285
B,5,2749814,vowelstep7.wav,None,1000,12,3043831,328,295.285
B,5,2749814,sinestep7.wav,None,1000,12,3045831,341,297.285
B,5,2749814,vowelstep7_catch.wav,3,218,12,3047832,311,299.285
B,5,2749814,sinestep3.wav,None,1000,12,3049832,1101,301.285
B,5,2749814,vowelstep3.wav,None,1000,12,3051832,321,303.285
B,5,2749814,sinestep5.wav,None,1000,12,3053831,328,305.285
B,5,2749814,vowelstep1.wav,None,1000,12,3055831,329,307.285
B,5,2749814,vowelstep7.wav,None,1000,12,3057831,331,309.285
B,5,2749814,vowelstep1.wav,None,1000,12,3059831,326,311.285
B,5,2749814,sinestep7.wav,None,1000,12,3061831,318,313.285
B,5,2749814,sinestep3.wav,None,1000,12,3063832,315,315.285
B,5,2749814,silence.wav,None,1000,12,3065832,319,317.285
B,5,2749814,vowelstep1.wav,None,1000,12,3067832,319,319.285
A,6,3133135,sinestep5_catch.wav,3,331,12,3133149,0,1.285
A,6,3133135,vowelstep1.wav,None,1000,12,3135150,989,3.285
A,6,3133135,vowelstep3.wav,None,1000,12,3137150,336,5.285
A,6,3133135,sinestep1.wav,None,1000,12,3139150,334,7.285
A,6,3133135,sinestep5_catch.wav,3,351,12,3141150,339,9.285
A,6,3133135,sinestep7.wav,None,1000,12,3143149,959,11.285
A,6,3133135,sinestep3.wav,None,1000,12,3145149,326,13.285
A,6,3133135,silence.wav,None,1000,12,3147149,326,15.285
A,6,3133135,vowelstep7.wav,None,1000,12,3149149,335,17.285
A,6,3133135,sinestep7.wav,None,1000,12,3151150,336,19.285
A,6,3133135,vowelstep5_catch.wav,3,165,12,3153150,331,21.285
A,6,3133135,sinestep7.wav,None,1000,12,3155150,1180,23.285
A,6,3133135,sinestep3.wav,None,1000,12,3157150,320,25.285
A,6,3133135,silence.wav,None,1000,12,3159150,326,27.285
A,6,3133135,sinestep3.wav,None,1000,12,3161150,324,29.285
A,6,3133135,sinestep5_catch.wav,3,376,12,3163150,335,31.285
A,6,3133135,sinestep1.wav,None,1000,12,3165150,959,33.285
A,6,3133135,sinestep1.wav,None,1000,12,3167149,336,35.285
A,6,3133135,sinestep5.wav,None,1000,12,3169150,346,37.285
A,6,3133135,vowelstep3.wav,None,1000,12,3171150,314,39.285
A,6,3133135,vowelstep5.wav,None,1000,12,3173150,324,41.285
A,6,3133135,vowelstep3.wav,None,1000,12,3175150,324,43.285
A,6,3133135,vowelstep1.wav,None,1000,12,3177150,325,45.285
A,6,3133135,vowelstep3.wav,None,1000,12,3179150,334,47.285
A,6,3133135,sinestep3.wav,None,1000,12,3181150,335,49.285
A,6,3133135,sinestep7.wav,None,1000,12,3183150,339,51.285
A,6,3133135,sinestep5.wav,None,1000,12,3185150,306,53.285
A,6,3133135,vowelstep7_catch.wav,3,180,12,3187151,320,55.285
A,6,3133135,silence.wav,None,1000,12,3189151,1138,57.285
A,6,3133135,vowelstep3.wav,None,1000,12,3191150,333,59.285
A,6,3133135,vowelstep1.wav,None,1000,12,3193150,332,61.285
A,6,3133135,silence.wav,None,1000,12,3195150,333,63.285
A,6,3133135,sinestep3.wav,None,1000,12,3197150,333,65.285
A,6,3133135,sinestep7.wav,None,1000,12,3199150,323,67.285
A,6,3133135,sinestep5.wav,None,1000,12,3201150,323,69.285
A,6,3133135,sinestep5.wav,None,1000,12,3203150,319,71.285
A,6,3133135,sinestep7.wav,None,1000,12,3205151,319,73.285
A,6,3133135,sinestep1.wav,None,1000,12,3207151,331,75.285
A,6,3133135,sinestep5.wav,None,1000,12,3209151,332,77.285
A,6,3133135,vowelstep1.wav,None,1000,12,3211151,332,79.285
A,6,3133135,sinestep1.wav,None,1000,12,3213151,312,81.285
A,6,3133135,vowelstep5.wav,None,1000,12,3215150,316,83.285
A,6,3133135,sinestep1.wav,None,1000,12,3217150,322,85.285
A,6,3133135,silence.wav,None,1000,12,3219150,322,87.285
A,6,3133135,vowelstep1.wav,None,1000,12,3221151,331,89.285
A,6,3133135,sinestep3.wav,None,1000,12,3223151,332,91.285
A,6,3133135,vowelstep5.wav,None,1000,12,3225151,328,93.285
A,6,3133135,vowelstep5.wav,None,1000,12,3227151,342,95.285
A,6,3133135,vowelstep5.wav,None,1000,12,3229151,321,97.285
A,6,3133135,vowelstep7.wav,None,1000,12,3231151,321,99.285
A,6,3133135,vowelstep3.wav,None,1000,12,3233151,322,101.285
A,6,3133135,sinestep1.wav,None,1000,12,3235151,331,103.285
A,6,3133135,sinestep1.wav,None,1000,12,3237151,331,105.285
A,6,3133135,vowelstep7.wav,None,1000,12,3239151,331,107.285
A,6,3133135,vowelstep1.wav,None,1000,12,3241151,341,109.285
A,6,3133135,vowelstep7.wav,None,1000,12,3243151,320,111.285
A,6,3133135,silence.wav,None,1000,12,3245151,314,113.285
A,6,3133135,sinestep1.wav,None,1000,12,3247151,319,115.285
A,6,3133135,vowelstep1.wav,None,1000,12,3249151,330,117.285
A,6,3133135,silence.wav,None,1000,12,3251151,330,119.285
A,6,3133135,vowelstep1.wav,None,1000,12,3253151,329,121.285
A,6,3133135,vowelstep3.wav,None,1000,12,3255151,340,123.285
A,6,3133135,vowelstep1.wav,None,1000,12,3257152,310,125.285
A,6,3133135,sinestep7.wav,None,1000,12,3259152,319,127.285
A,6,3133135,silence.wav,None,1000,12,3261152,317,129.285
A,6,3133135,vowelstep1.wav,None,1000,12,3263151,329,131.285
A,6,3133135,silence.wav,None,1000,12,3265151,329,133.285
A,6,3133135,sinestep7.wav,None,1000,12,3267151,325,135.285
A,6,3133135,vowelstep5.wav,None,1000,12,3269151,328,137.285
A,6,3133135,sinestep7.wav,None,1000,12,3271151,317,139.285
A,6,3133135,sinestep3.wav,None,1000,12,3273151,318,141.285
A,6,3133135,vowelstep5.wav,None,1000,12,3275152,318,143.285
A,6,3133135,silence.wav,None,1000,12,3277152,322,145.285
A,6,3133135,sinestep3.wav,None,1000,12,3279152,328,147.285
A,6,3133135,sinestep5.wav,None,1000,12,3281152,328,149.285
A,6,3133135,sinestep3.wav,None,1000,12,3283152,306,151.285
A,6,3133135,vowelstep3.wav,None,1000,12,3285152,317,153.285
A,6,3133135,sinestep3.wav,None,1000,12,3287151,317,155.285
A,6,3133135,vowelstep7_catch.wav,3,293,12,3289151,318,157.285
A,6,3133135,vowelstep7.wav,None,1000,12,3291152,1034,159.285
A,6,3133135,vowelstep5.wav,None,1000,12,3293152,326,161.285
A,6,3133135,sinestep5.wav,None,1000,12,3295152,323,163.285
A,6,3133135,silence.wav,None,1000,12,3297152,323,165.285
A,6,3133135,sinestep5.wav,None,1000,12,3299152,314,167.285
A,6,3133135,vowelstep5_catch.wav,4,288,12,3301152,314,169.285
A,6,3133135,silence.wav,None,1000,12,3303152,1025,171.285
A,6,3133135,sinestep7.wav,None,1000,12,3305152,311,173.285
A,6,3133135,sinestep5.wav,None,1000,12,3307152,324,175.285
A,6,3133135,sinestep7.wav,None,1000,12,3309153,325,177.285
A,6,3133135,vowelstep3.wav,None,1000,12,3311153,333,179.285
A,6,3133135,sinestep5.wav,None,1000,12,3313152,305,181.285
A,6,3133135,vowelstep1.wav,None,1000,12,3315152,336,183.285
A,6,3133135,vowelstep5.wav,None,1000,12,3317152,335,185.285
A,6,3133135,sinestep5.wav,None,1000,12,3319152,316,187.285
A,6,3133135,vowelstep1.wav,None,1000,12,3321152,316,189.285
A,6,3133135,silence.wav,None,1000,12,3323152,322,191.285
A,6,3133135,sinestep1.wav,None,1000,12,3325152,325,193.285
A,6,3133135,vowelstep5.wav,None,1000,12,3327153,303,195.285
A,6,3133135,sinestep3.wav,None,1000,12,3329153,334,197.285
A,6,3133135,silence.wav,None,1000,12,3331153,334,199.285
A,6,3133135,vowelstep3.wav,None,1000,12,3333153,345,201.285
A,6,3133135,vowelstep3_catch.wav,4,409,12,3335153,324,203.285
A,6,3133135,vowelstep5.wav,None,1000,12,3337152,912,205.285
A,6,3133135,vowelstep1_catch.wav,4,388,12,3339152,324,207.285
A,6,3133135,silence.wav,None,1000,12,3341152,946,209.285
A,6,3133135,sinestep3.wav,None,1000,12,3343153,330,211.285
A,6,3133135,vowelstep5.wav,None,1000,12,3345153,329,213.285
A,6,3133135,silence.wav,None,1000,12,3347153,312,215.285
A,6,3133135,sinestep5.wav,None,1000,12,3349153,322,217.285
A,6,3133135,vowelstep7.wav,None,1000,12,3351153,324,219.285
A,6,3133135,silence.wav,None,1000,12,3353153,322,221.285
A,6,3133135,vowelstep3.wav,None,1000,12,3355153,334,223.285
A,6,3133135,sinestep7.wav,None,1000,12,3357153,333,225.285
A,6,3133135,silence.wav,None,1000,12,3359153,333,227.285
A,6,3133135,vowelstep3.wav,None,1000,12,3361153,342,229.285
A,6,3133135,vowelstep5.wav,None,1000,12,3363153,322,231.285
A,6,3133135,vowelstep7.wav,None,1000,12,3365153,322,233.285
A,6,3133135,vowelstep3.wav,None,1000,12,3367153,322,235.285
A,6,3133135,vowelstep5.wav,None,1000,12,3369153,332,237.285
A,6,3133135,sinestep1_catch.wav,4,183,12,3371153,332,239.285
A,6,3133135,sinestep3.wav,None,1000,12,3373153,1148,241.285
A,6,3133135,sinestep1.wav,None,1000,12,3375153,341,243.285
A,6,3133135,sinestep3_catch.wav,4,191,12,3377153,321,245.285
A,6,3133135,sinestep7.wav,None,1000,12,3379154,1129,247.285
A,6,3133135,vowelstep1.wav,None,1000,12,3381154,321,249.285
A,6,3133135,sinestep3.wav,None,1000,12,3383154,324,251.285
A,6,3133135,vowelstep7.wav,None,1000,12,3385153,331,253.285
A,6,3133135,silence.wav,None,1000,12,3387153,331,255.285
A,6,3133135,sinestep1.wav,None,1000,12,3389153,340,257.285
A,6,3133135,silence.wav,None,1000,12,3391153,321,259.285
A,6,3133135,vowelstep5.wav,None,1000,12,3393153,320,261.285
A,6,3133135,sinestep5_catch.wav,4,355,12,3395153,317,263.285
A,6,3133135,vowelstep7.wav,None,1000,12,3397154,974,265.285
A,6,3133135,sinestep3.wav,None,1000,12,3399154,322,267.285
A,6,3133135,vowelstep1.wav,None,1000,12,3401154,331,269.285
A,6,3133135,vowelstep3.wav,None,1000,12,3403154,334,271.285
A,6,3133135,sinestep7_catch.wav,4,185,12,3405154,319,273.285
A,6,3133135,silence.wav,None,1000,12,3407154,1131,275.285
A,6,3133135,vowelstep7.wav,None,1000,12,3409154,316,277.285
A,6,3133135,sinestep7.wav,None,1000,12,3411153,317,279.285
A,6,3133135,sinestep1.wav,None,1000,12,3413154,328,281.285
A,6,3133135,vowelstep7.wav,None,1000,12,3415138,320,283.285
A,6,3133135,sinestep5.wav,None,1000,12,3417154,358,285.285
A,6,3133135,sinestep5.wav,None,1000,12,3419154,306,287.285
A,6,3133135,sinestep7_catch.wav,4,216,12,3421154,319,289.285
A,6,3133135,sinestep5.wav,None,1000,12,3423154,1103,291.285
A,6,3133135,silence.wav,None,1000,12,3425154,327,293.285
A,6,3133135,vowelstep3.wav,None,1000,12,3427154,327,295.285
A,6,3133135,silence.wav,None,1000,12,3429154,329,297.285
A,6,3133135,vowelstep1.wav,None,1000,12,3431138,329,299.285
A,6,3133135,sinestep1.wav,None,1000,12,3433138,338,301.285
A,6,3133135,sinestep7.wav,None,1000,12,3435154,337,303.285
A,6,3133135,vowelstep7.wav,None,1000,12,3437154,318,305.285
A,6,3133135,sinestep1_catch.wav,4,421,12,3439154,317,307.285
A,6,3133135,silence.wav,None,1000,12,3441154,905,309.285
A,6,3133135,silence.wav,None,1000,12,3443154,328,311.285
A,6,3133135,vowelstep7.wav,None,1000,12,3445154,328,313.285
A,6,3133135,sinestep1.wav,None,1000,12,3447154,302,315.285
A,6,3133135,vowelstep7.wav,None,1000,12,3449138,318,317.285
A,6,3133135,vowelstep7.wav,None,1000,12,3451138,336,319.285
I,7,3512384,vowelstep7.wav,None,1000,12,3512389,0,1.285
I,7,3512384,sinestep1_catch.wav,None,1000,12,3514388,342,3.285
I,7,3512384,sinestep3.wav,None,1000,12,3516388,341,5.285
I,7,3512384,silence.wav,None,1000,12,3518389,340,7.285
I,7,3512384,vowelstep7.wav,None,1000,12,3520389,350,9.285
I,7,3512384,sinestep3_catch.wav,4,463,12,3522389,330,11.285
I,7,3512384,vowelstep3.wav,None,1000,12,3524389,866,13.285
I,7,3512384,vowelstep3.wav,None,1000,12,3526389,330,15.285
I,7,3512384,silence.wav,None,1000,12,3528389,340,17.285
I,7,3512384,vowelstep1.wav,None,1000,12,3530389,340,19.285
I,7,3512384,vowelstep5.wav,None,1000,12,3532389,336,21.285
I,7,3512384,vowelstep7.wav,None,1000,12,3534389,319,23.285
I,7,3512384,sinestep1.wav,None,1000,12,3536390,329,25.285
I,7,3512384,vowelstep1.wav,None,1000,12,3538389,330,27.285
I,7,3512384,sinestep5_catch.wav,4,253,12,3540389,340,29.285
I,7,3512384,sinestep5.wav,None,1000,12,3542389,1087,31.285
I,7,3512384,vowelstep1.wav,None,1000,12,3544389,341,33.285
I,7,3512384,sinestep7.wav,None,1000,12,3546389,341,35.285
I,7,3512384,vowelstep3.wav,None,1000,12,3548389,319,37.285
I,7,3512384,vowelstep1.wav,None,1000,12,3550389,332,39.285
I,7,3512384,vowelstep1.wav,None,1000,12,3552389,331,41.285
I,7,3512384,sinestep3.wav,None,1000,12,3554390,331,43.285
I,7,3512384,sinestep5.wav,None,1000,12,3556390,341,45.285
I,7,3512384,sinestep5.wav,None,1000,12,3558390,340,47.285
I,7,3512384,vowelstep3.wav,None,1000,12,3560390,338,49.285
I,7,3512384,silence.wav,None,1000,12,3562390,349,51.285
I,7,3512384,sinestep7_catch.wav,4,286,12,3564389,330,53.285
I,7,3512384,silence.wav,None,1000,12,3566389,1043,55.285
I,7,3512384,sinestep1.wav,None,1000,12,3568389,330,57.285
I,7,3512384,vowelstep1.wav,None,1000,12,3570389,341,59.285
I,7,3512384,sinestep1.wav,None,1000,12,3572390,339,61.285
I,7,3512384,sinestep1.wav,None,1000,12,3574390,339,63.285
I,7,3512384,vowelstep7.wav,None,1000,12,3576390,319,65.285
I,7,3512384,sinestep5.wav,None,1000,12,3578390,329,67.285
I,7,3512384,sinestep5_catch.wav,4,367,12,3580390,329,69.285
I,7,3512384,vowelstep7.wav,None,1000,12,3582390,958,71.285
I,7,3512384,vowelstep5.wav,None,1000,12,3584390,339,73.285
I,7,3512384,sinestep3.wav,None,1000,12,3586390,338,75.285
I,7,3512384,vowelstep1.wav,None,1000,12,3588390,336,77.285
I,7,3512384,sinestep3.wav,None,1000,12,3590390,336,79.285
I,7,3512384,sinestep5.wav,None,1000,12,3592390,328,81.285
I,7,3512384,sinestep5.wav,None,1000,12,3594390,328,83.285
I,7,3512384,vowelstep5.wav,None,1000,12,3596390,324,85.285
I,7,3512384,vowelstep7.wav,None,1000,12,3598390,321,87.285
I,7,3512384,sinestep3.wav,None,1000,12,3600390,335,89.285
I,7,3512384,vowelstep3.wav,None,1000,12,3602390,339,91.285
I,7,3512384,sinestep3.wav,None,1000,12,3604390,346,93.285
I,7,3512384,vowelstep5.wav,None,1000,12,3606391,328,95.285
I,7,3512384,sinestep7.wav,None,1000,12,3608391,327,97.285
I,7,3512384,sinestep3_catch.wav,4,305,12,3610391,322,99.285
I,7,3512384,sinestep1_catch.wav,None,1000,12,3612390,1032,101.285
I,7,3512384,vowelstep3.wav,None,1000,12,3614390,337,103.285
I,7,3512384,vowelstep3.wav,None,1000,12,3616390,330,105.285
I,7,3512384,vowelstep5.wav,None,1000,12,3618390,347,107.285
I,7,3512384,sinestep5.wav,None,1000,12,3620390,327,109.285
I,7,3512384,vowelstep5.wav,None,1000,12,3622390,328,111.285
I,7,3512384,vowelstep5.wav,None,1000,12,3624391,328,113.285
I,7,3512384,vowelstep1.wav,None,1000,12,3626391,325,115.285
I,7,3512384,vowelstep1_catch.wav,4,382,12,3628391,336,117.285
I,7,3512384,sinestep7.wav,None,1000,12,3630391,950,119.285
I,7,3512384,vowelstep3.wav,None,1000,12,3632391,347,121.285
I,7,3512384,sinestep7.wav,None,1000,12,3634391,345,123.285
I,7,3512384,sinestep7.wav,None,1000,12,3636390,325,125.285
I,7,3512384,vowelstep7.wav,None,1000,12,3638390,326,127.285
I,7,3512384,vowelstep3.wav,None,1000,12,3640391,326,129.285
I,7,3512384,sinestep5.wav,None,1000,12,3642391,333,131.285
I,7,3512384,sinestep5.wav,None,1000,12,3644391,333,133.285
I,7,3512384,vowelstep3.wav,None,1000,12,3646391,335,135.285
I,7,3512384,sinestep5.wav,None,1000,12,3648391,315,137.285
I,7,3512384,sinestep1.wav,None,1000,12,3650391,325,139.285
I,7,3512384,vowelstep7.wav,None,1000,12,3652391,325,141.285
I,7,3512384,silence.wav,None,1000,12,3654391,325,143.285
I,7,3512384,vowelstep7.wav,None,1000,12,3656391,334,145.285
I,7,3512384,silence.wav,None,1000,12,3658392,335,147.285
I,7,3512384,sinestep1.wav,None,1000,12,3660392,331,149.285
I,7,3512384,vowelstep1.wav,None,1000,12,3662391,341,151.285
I,7,3512384,vowelstep3.wav,None,1000,12,3664391,341,153.285
I,7,3512384,silence.wav,None,1000,12,3666391,344,155.285
I,7,3512384,silence.wav,None,1000,12,3668391,323,157.285
I,7,3512384,vowelstep1.wav,None,1000,12,3670391,333,159.285
I,7,3512384,sinestep1.wav,None,1000,12,3672391,329,161.285
I,7,3512384,vowelstep3_catch.wav,4,291,12,3674391,334,163.285
I,7,3512384,sinestep1.wav,None,1000,12,3676392,1048,165.285
I,7,3512384,vowelstep5.wav,None,1000,12,3678392,337,167.285
I,7,3512384,vowelstep5_catch.wav,4,167,12,3680392,343,169.285
I,7,3512384,sinestep1.wav,None,1000,12,3682392,1174,171.285
I,7,3512384,silence.wav,None,1000,12,3684391,334,173.285
I,7,3512384,vowelstep5.wav,None,1000,12,3686391,334,175.285
I,7,3512384,sinestep3.wav,None,1000,12,3688391,333,177.285
I,7,3512384,sinestep3.wav,None,1000,12,3690391,343,179.285
I,7,3512384,silence.wav,None,1000,12,3692391,343,181.285
I,7,3512384,silence.wav,None,1000,12,3694392,341,183.285
I,7,3512384,vowelstep3.wav,None,1000,12,3696392,352,185.285
I,7,3512384,vowelstep7.wav,None,1000,12,3698392,332,187.285
I,7,3512384,vowelstep7.wav,None,1000,12,3700392,332,189.285
I,7,3512384,silence.wav,None,1000,12,3702392,332,191.285
I,7,3512384,sinestep3.wav,None,1000,12,3704392,342,193.285
I,7,3512384,sinestep3.wav,None,1000,12,3706392,342,195.285
I,7,3512384,vowelstep5.wav,None,1000,12,3708391,342,197.285
I,7,3512384,vowelstep1.wav,None,1000,12,3710392,342,199.285
I,7,3512384,vowelstep1.wav,None,1000,12,3712392,331,201.285
I,7,3512384,sinestep5.wav,None,1000,12,3714392,330,203.285
I,7,3512384,silence.wav,None,1000,12,3716392,330,205.285
I,7,3512384,sinestep5.wav,None,1000,12,3718392,331,207.285
I,7,3512384,sinestep7.wav,None,1000,12,3720392,342,209.285
I,7,3512384,sinestep1.wav,None,1000,12,3722392,341,211.285
I,7,3512384,sinestep5.wav,None,1000,12,3724392,337,213.285
I,7,3512384,vowelstep5.wav,None,1000,12,3726392,327,215.285
I,7,3512384,sinestep7.wav,None,1000,12,3728393,327,217.285
I,7,3512384,sinestep5.wav,None,1000,12,3730393,328,219.285
I,7,3512384,sinestep3.wav,None,1000,12,3732392,329,221.285
I,7,3512384,silence.wav,None,1000,12,3734392,340,223.285
I,7,3512384,vowelstep7_catch.wav,4,415,12,3736392,339,225.285
I,7,3512384,sinestep7.wav,None,1000,12,3738392,923,227.285
I,7,3512384,sinestep7.wav,None,1000,12,3740392,320,229.285
I,7,3512384,sinestep3.wav,None,1000,12,3742392,329,231.285
I,7,3512384,vowelstep3.wav,None,1000,12,3744392,330,233.285
I,7,3512384,silence.wav,None,1000,12,3746393,339,235.285
I,7,3512384,sinestep3.wav,None,1000,12,3748393,338,237.285
I,7,3512384,sinestep5.wav,None,1000,12,3750393,338,239.285
I,7,3512384,silence.wav,None,1000,12,3752393,338,241.285
I,7,3512384,vowelstep3.wav,None,1000,12,3754393,328,243.285
I,7,3512384,sinestep1.wav,None,1000,12,3756393,329,245.285
I,7,3512384,sinestep1.wav,None,1000,12,3758392,329,247.285
I,7,3512384,sinestep7.wav,None,1000,12,3760392,328,249.285
I,7,3512384,vowelstep7.wav,None,1000,12,3762392,338,251.285
I,7,3512384,vowelstep5.wav,None,1000,12,3764393,337,253.285
I,7,3512384,silence.wav,None,1000,12,3766393,337,255.285
I,7,3512384,sinestep3.wav,None,1000,12,3768393,317,257.285
I,7,3512384,vowelstep1.wav,None,1000,12,3770393,328,259.285
I,7,3512384,vowelstep1.wav,None,1000,12,3772393,321,261.285
I,7,3512384,silence.wav,None,1000,12,3774393,325,263.285
I,7,3512384,vowelstep3.wav,None,1000,12,3776393,334,265.285
I,7,3512384,silence.wav,None,1000,12,3778393,338,267.285
I,7,3512384,silence.wav,None,1000,12,3780394,337,269.285
I,7,3512384,sinestep7.wav,None,1000,12,3782393,316,271.285
I,7,3512384,sinestep7.wav,None,1000,12,3784393,327,273.285
I,7,3512384,vowelstep5.wav,None,1000,12,3786393,327,275.285
I,7,3512384,silence.wav,None,1000,12,3788393,326,277.285
I,7,3512384,silence.wav,None,1000,12,3790393,336,279.285
I,7,3512384,sinestep1.wav,None,1000,12,3792393,336,281.285
I,7,3512384,silence.wav,None,1000,12,3794393,334,283.285
I,7,3512384,vowelstep7.wav,None,1000,12,3796393,347,285.285
I,7,3512384,vowelstep5_catch.wav,4,186,12,3798394,326,287.285
I,7,3512384,sinestep7.wav,None,1000,12,3800394,1138,289.285
I,7,3512384,sinestep1.wav,None,1000,12,3802394,326,291.285
I,7,3512384,vowelstep3_catch.wav,4,146,12,3804394,324,293.285
I,7,3512384,sinestep1.wav,None,1000,12,3806393,1189,295.285
I,7,3512384,vowelstep7.wav,None,1000,12,3808393,336,297.285
I,7,3512384,sinestep3.wav,None,1000,12,3810393,345,299.285
I,7,3512384,vowelstep5.wav,None,1000,12,3812393,315,301.285
I,7,3512384,vowelstep1_catch.wav,4,159,12,3814393,325,303.285
I,7,3512384,vowelstep7.wav,None,1000,12,3816394,1164,305.285
I,7,3512384,vowelstep5.wav,None,1000,12,3818394,325,307.285
I,7,3512384,sinestep1_catch.wav,4,141,12,3820394,334,309.285
I,7,3512384,silence.wav,None,1000,12,3822394,1193,311.285
I,7,3512384,sinestep7.wav,None,1000,12,3824394,344,313.285
I,7,3512384,silence.wav,None,1000,12,3826394,345,315.285
I,7,3512384,vowelstep1.wav,None,1000,12,3828394,324,317.285
I,7,3512384,sinestep7.wav,None,1000,12,3830393,323,319.285
E,8,3891639,vowelstep7.wav,None,1000,12,3891645,0,1.285
E,8,3891639,sinestep3.wav,None,1000,12,3893645,335,3.285
E,8,3891639,sinestep5.wav,None,1000,12,3895645,331,5.285
E,8,3891639,sinestep1.wav,None,1000,12,3897645,333,7.285
E,8,3891639,sinestep5.wav,None,1000,12,3899645,343,9.285
E,8,3891639,silence.wav,None,1000,12,3901645,324,11.285
E,8,3891639,vowelstep1.wav,None,1000,12,3903645,324,13.285
E,8,3891639,vowelstep7.wav,None,1000,12,3905645,354,15.285
E,8,3891639,vowelstep1.wav,None,1000,12,3907645,334,17.285
E,8,3891639,sinestep1_catch.wav,3,328,12,3909645,335,19.285
E,8,3891639,vowelstep5.wav,None,1000,12,3911645,1005,21.285
E,8,3891639,sinestep5.wav,None,1000,12,3913645,343,23.285
E,8,3891639,vowelstep5.wav,None,1000,12,3915645,342,25.285
E,8,3891639,vowelstep3.wav,None,1000,12,3917645,340,27.285
E,8,3891639,sinestep1.wav,None,1000,12,3919645,324,29.285
E,8,3891639,vowelstep5.wav,None,1000,12,3921646,329,31.285
E,8,3891639,silence.wav,None,1000,12,3923646,333,33.285
E,8,3891639,silence.wav,None,1000,12,3925646,333,35.285
E,8,3891639,sinestep3.wav,None,1000,12,3927645,340,37.285
E,8,3891639,sinestep3.wav,None,1000,12,3929645,343,39.285
E,8,3891639,sinestep3.wav,None,1000,12,3931645,343,41.285
E,8,3891639,sinestep1.wav,None,1000,12,3933645,354,43.285
E,8,3891639,vowelstep1.wav,None,1000,12,3935645,333,45.285
E,8,3891639,sinestep1.wav,None,1000,12,3937646,333,47.285
E,8,3891639,vowelstep7.wav,None,1000,12,3939646,332,49.285
E,8,3891639,vowelstep5.wav,None,1000,12,3941646,341,51.285
E,8,3891639,sinestep7.wav,None,1000,12,3943646,342,53.285
E,8,3891639,sinestep1.wav,None,1000,12,3945646,342,55.285
E,8,3891639,vowelstep5.wav,None,1000,12,3947646,339,57.285
E,8,3891639,sinestep3.wav,None,1000,12,3949646,322,59.285
E,8,3891639,vowelstep1.wav,None,1000,12,3951645,332,61.285
E,8,3891639,vowelstep5.wav,None,1000,12,3953645,332,63.285
E,8,3891639,vowelstep3.wav,None,1000,12,3955646,343,65.285
E,8,3891639,sinestep1.wav,None,1000,12,3957646,341,67.285
E,8,3891639,vowelstep3.wav,None,1000,12,3959646,338,69.285
E,8,3891639,silence.wav,None,1000,12,3961646,339,71.285
E,8,3891639,vowelstep3.wav,None,1000,12,3963646,319,73.285
E,8,3891639,sinestep3_catch.wav,3,307,12,3965646,332,75.285
E,8,3891639,sinestep3.wav,None,1000,12,3967646,1017,77.285
E,8,3891639,vowelstep3.wav,None,1000,12,3969646,330,79.285
E,8,3891639,vowelstep7.wav,None,1000,12,3971646,340,81.285
E,8,3891639,silence.wav,None,1000,12,3973647,340,83.285
E,8,3891639,sinestep3.wav,None,1000,12,3975646,340,85.285
E,8,3891639,silence.wav,None,1000,12,3977646,320,87.285
E,8,3891639,sinestep1.wav,None,1000,12,3979646,330,89.285
E,8,3891639,sinestep5_catch.wav,3,153,12,3981646,330,91.285
E,8,3891639,vowelstep3.wav,None,1000,12,3983646,1177,93.285
E,8,3891639,sinestep5.wav,None,1000,12,3985646,339,95.285
E,8,3891639,vowelstep7.wav,None,1000,12,3987646,340,97.285
E,8,3891639,sinestep1.wav,None,1000,12,3989646,340,99.285
E,8,3891639,sinestep5.wav,None,1000,12,3991647,324,101.285
E,8,3891639,sinestep5.wav,None,1000,12,3993647,330,103.285
E,8,3891639,vowelstep7.wav,None,1000,12,3995647,328,105.285
E,8,3891639,vowelstep3.wav,None,1000,12,3997647,329,107.285
E,8,3891639,vowelstep7.wav,None,1000,12,3999646,339,109.285
E,8,3891639,sinestep5.wav,None,1000,12,4001646,335,111.285
E,8,3891639,vowelstep3.wav,None,1000,12,4003646,348,113.285
E,8,3891639,vowelstep7.wav,None,1000,12,4005646,348,115.285
E,8,3891639,sinestep3.wav,None,1000,12,4007647,322,117.285
E,8,3891639,vowelstep7.wav,None,1000,12,4009647,323,119.285
E,8,3891639,silence.wav,None,1000,12,4011647,325,121.285
E,8,3891639,silence.wav,None,1000,12,4013647,338,123.285
E,8,3891639,sinestep7.wav,None,1000,12,4015647,334,125.285
E,8,3891639,sinestep7_catch.wav,3,287,12,4017647,332,127.285
E,8,3891639,sinestep7.wav,None,1000,12,4019647,1056,129.285
E,8,3891639,silence.wav,None,1000,12,4021647,327,131.285
E,8,3891639,sinestep7_catch.wav,3,567,12,4023647,321,133.285
E,8,3891639,sinestep7.wav,None,1000,12,4025647,759,135.285
E,8,3891639,sinestep5_catch.wav,None,1000,12,4027647,335,137.285
E,8,3891639,sinestep1.wav,None,1000,12,4029647,336,139.285
E,8,3891639,sinestep1.wav,None,1000,12,4031647,335,141.285
E,8,3891639,sinestep1.wav,None,1000,12,4033647,347,143.285
E,8,3891639,sinestep3.wav,None,1000,12,4035647,317,145.285
E,8,3891639,vowelstep5.wav,None,1000,12,4037647,327,147.285
E,8,3891639,silence.wav,None,1000,12,4039647,324,149.285
E,8,3891639,sinestep3_catch.wav,3,572,12,4041647,331,151.285
E,8,3891639,silence.wav,None,1000,12,4043648,765,153.285
E,8,3891639,sinestep7.wav,None,1000,12,4045648,332,155.285
E,8,3891639,sinestep5.wav,None,1000,12,4047648,346,157.285
E,8,3891639,silence.wav,None,1000,12,4049647,316,159.285
E,8,3891639,vowelstep5.wav,None,1000,12,4051647,325,161.285
E,8,3891639,vowelstep1.wav,None,1000,12,4053647,321,163.285
E,8,3891639,vowelstep3.wav,None,1000,12,4055647,336,165.285
E,8,3891639,sinestep5.wav,None,1000,12,4057647,336,167.285
E,8,3891639,sinestep7.wav,None,1000,12,4059647,334,169.285
E,8,3891639,vowelstep1.wav,None,1000,12,4061648,334,171.285
E,8,3891639,vowelstep7.wav,None,1000,12,4063648,345,173.285
E,8,3891639,sinestep3.wav,None,1000,12,4065648,325,175.285
E,8,3891639,silence.wav,None,1000,12,4067648,325,177.285
E,8,3891639,sinestep1_catch.wav,3,277,12,4069648,333,179.285
E,8,3891639,sinestep7.wav,None,1000,12,4071648,1057,181.285
E,8,3891639,vowelstep1.wav,None,1000,12,4073647,335,183.285
E,8,3891639,sinestep5.wav,None,1000,12,4075647,344,185.285
E,8,3891639,sinestep5.wav,None,1000,12,4077648,315,187.285
E,8,3891639,vowelstep1.wav,None,1000,12,4079648,321,189.285
E,8,3891639,sinestep7.wav,None,1000,12,4081648,324,191.285
E,8,3891639,sinestep3.wav,None,1000,12,4083648,329,193.285
E,8,3891639,sinestep7.wav,None,1000,12,4085648,333,195.285
E,8,3891639,silence.wav,None,1000,12,4087648,334,197.285
E,8,3891639,vowelstep1.wav,None,1000,12,4089648,328,199.285
E,8,3891639,sinestep1.wav,None,1000,12,4091648,324,201.285
E,8,3891639,vowelstep1.wav,None,1000,12,4093648,321,203.285
E,8,3891639,vowelstep1.wav,None,1000,12,4095649,323,205.285
E,8,3891639,vowelstep1_catch.wav,3,174,12,4097648,322,207.285
E,8,3891639,vowelstep1.wav,None,1000,12,4099648,1158,209.285
E,8,3891639,vowelstep1.wav,None,1000,12,4101648,332,211.285
E,8,3891639,silence.wav,None,1000,12,4103648,332,213.285
E,8,3891639,sinestep7.wav,None,1000,12,4105648,318,215.285
E,8,3891639,vowelstep7.wav,None,1000,12,4107648,323,217.285
E,8,3891639,vowelstep3_catch.wav,3,175,12,4109648,321,219.285
E,8,3891639,vowelstep5.wav,None,1000,12,4111648,1146,221.285
E,8,3891639,sinestep3.wav,None,1000,12,4113649,333,223.285
E,8,3891639,silence.wav,None,1000,12,4115649,332,225.285
E,8,3891639,sinestep1.wav,None,1000,12,4117649,331,227.285
E,8,3891639,sinestep5.wav,None,1000,12,4119649,312,229.285
E,8,3891639,sinestep5.wav,None,1000,12,4121648,317,231.285
E,8,3891639,sinestep3.wav,None,1000,12,4123648,322,233.285
E,8,3891639,sinestep5.wav,None,1000,12,4125648,315,235.285
E,8,3891639,vowelstep3.wav,None,1000,12,4127648,331,237.285
E,8,3891639,sinestep7.wav,None,1000,12,4129648,331,239.285
E,8,3891639,sinestep7.wav,None,1000,12,4131649,330,241.285
E,8,3891639,silence.wav,None,1000,12,4133649,340,243.285
E,8,3891639,sinestep3.wav,None,1000,12,4135649,320,245.285
E,8,3891639,sinestep3.wav,None,1000,12,4137649,321,247.285
E,8,3891639,vowelstep3.wav,None,1000,12,4139649,321,249.285
E,8,3891639,silence.wav,None,1000,12,4141649,330,251.285
E,8,3891639,sinestep7.wav,None,1000,12,4143649,330,253.285
E,8,3891639,silence.wav,None,1000,12,4145648,328,255.285
E,8,3891639,vowelstep7.wav,None,1000,12,4147649,307,257.285
E,8,3891639,vowelstep3.wav,None,1000,12,4149649,319,259.285
E,8,3891639,silence.wav,None,1000,12,4151649,320,261.285
E,8,3891639,vowelstep3.wav,None,1000,12,4153649,345,263.285
E,8,3891639,vowelstep1.wav,None,1000,12,4155649,330,265.285
E,8,3891639,vowelstep5.wav,None,1000,12,4157649,325,267.285
E,8,3891639,silence.wav,None,1000,12,4159649,328,269.285
E,8,3891639,vowelstep3.wav,None,1000,12,4161649,340,271.285
E,8,3891639,sinestep1.wav,None,1000,12,4163649,338,273.285
E,8,3891639,vowelstep5_catch.wav,3,311,12,4165650,339,275.285
E,8,3891639,sinestep7.wav,None,1000,12,4167650,1034,277.285
E,8,3891639,sinestep7.wav,None,1000,12,4169649,328,279.285
E,8,3891639,vowelstep7.wav,None,1000,12,4171649,328,281.285
E,8,3891639,silence.wav,None,1000,12,4173649,329,283.285
E,8,3891639,sinestep5.wav,None,1000,12,4175649,339,285.285
E,8,3891639,silence.wav,None,1000,12,4177649,338,287.285
E,8,3891639,silence.wav,None,1000,12,4179649,338,289.285
E,8,3891639,vowelstep5.wav,None,1000,12,4181649,338,291.285
E,8,3891639,vowelstep5.wav,None,1000,12,4183650,318,293.285
E,8,3891639,silence.wav,None,1000,12,4185650,327,295.285
E,8,3891639,vowelstep5.wav,None,1000,12,4187650,327,297.285
E,8,3891639,vowelstep7_catch.wav,3,176,12,4189650,327,299.285
E,8,3891639,vowelstep7_catch.wav,3,124,12,4191650,1160,301.285
E,8,3891639,vowelstep5.wav,None,1000,12,4193650,1212,303.285
E,8,3891639,sinestep1.wav,None,1000,12,4195649,330,305.285
E,8,3891639,vowelstep3.wav,None,1000,12,4197649,347,307.285
E,8,3891639,vowelstep5_catch.wav,3,209,12,4199649,327,309.285
E,8,3891639,vowelstep7.wav,None,1000,12,4201650,1112,311.285
E,8,3891639,vowelstep5.wav,None,1000,12,4203650,325,313.285
E,8,3891639,vowelstep7.wav,None,1000,12,4205650,336,315.285
E,8,3891639,vowelstep1.wav,None,1000,12,4207650,336,317.285
E,8,3891639,vowelstep3_catch.wav,3,180,12,4209650,343,319.285
G,9,4271000,vowelstep3.wav,None,1000,12,4271018,0,1.285
G,9,4271000,vowelstep3.wav,None,1000,12,4273018,313,3.285
G,9,4271000,vowelstep7.wav,None,1000,12,4275018,313,5.285
G,9,4271000,vowelstep3.wav,None,1000,12,4277018,319,7.285
G,9,4271000,sinestep5.wav,None,1000,12,4279018,323,9.285
G,9,4271000,sinestep1_catch.wav,4,284,12,4281018,321,11.285
G,9,4271000,silence.wav,None,1000,12,4283017,1048,13.285
G,9,4271000,silence.wav,None,1000,12,4285017,313,15.285
G,9,4271000,vowelstep7.wav,None,1000,12,4287017,313,17.285
G,9,4271000,vowelstep1.wav,None,1000,12,4289018,312,19.285
G,9,4271000,silence.wav,None,1000,12,4291018,322,21.285
G,9,4271000,sinestep1.wav,None,1000,12,4293018,318,23.285
G,9,4271000,vowelstep7.wav,None,1000,12,4295018,322,25.285
G,9,4271000,sinestep5.wav,None,1000,12,4297018,329,27.285
G,9,4271000,sinestep5.wav,None,1000,12,4299018,312,29.285
G,9,4271000,sinestep3.wav,None,1000,12,4301018,309,31.285
G,9,4271000,vowelstep3.wav,None,1000,12,4303018,311,33.285
G,9,4271000,silence.wav,None,1000,12,4305019,309,35.285
G,9,4271000,vowelstep1.wav,None,1000,12,4307018,320,37.285
G,9,4271000,sinestep7.wav,None,1000,12,4309018,321,39.285
G,9,4271000,vowelstep5.wav,None,1000,12,4311018,331,41.285
G,9,4271000,vowelstep3.wav,None,1000,12,4313018,331,43.285
G,9,4271000,sinestep1.wav,None,1000,12,4315018,331,45.285
G,9,4271000,sinestep7.wav,None,1000,12,4317018,329,47.285
G,9,4271000,sinestep1.wav,None,1000,12,4319018,339,49.285
G,9,4271000,sinestep5.wav,None,1000,12,4321018,319,51.285
G,9,4271000,vowelstep1.wav,None,1000,12,4323019,316,53.285
G,9,4271000,silence.wav,None,1000,12,4325019,318,55.285
G,9,4271000,sinestep5.wav,None,1000,12,4327019,325,57.285
G,9,4271000,vowelstep1.wav,None,1000,12,4329019,331,59.285
G,9,4271000,vowelstep3.wav,None,1000,12,4331019,328,61.285
G,9,4271000,sinestep3.wav,None,1000,12,4333018,309,63.285
G,9,4271000,sinestep1.wav,None,1000,12,4335018,320,65.285
G,9,4271000,vowelstep5.wav,None,1000,12,4337018,320,67.285
G,9,4271000,vowelstep3.wav,None,1000,12,4339018,320,69.285
G,9,4271000,vowelstep5.wav,None,1000,12,4341019,326,71.285
G,9,4271000,vowelstep7.wav,None,1000,12,4343019,324,73.285
G,9,4271000,vowelstep5.wav,None,1000,12,4345019,328,75.285
G,9,4271000,vowelstep5.wav,None,1000,12,4347019,313,77.285
G,9,4271000,sinestep3.wav,None,1000,12,4349019,320,79.285
G,9,4271000,sinestep3_catch.wav,3,431,12,4351019,319,81.285
G,9,4271000,sinestep5_catch.wav,None,1000,12,4353019,883,83.285
G,9,4271000,sinestep7.wav,None,1000,12,4355019,329,85.285
G,9,4271000,sinestep7_catch.wav,3,676,12,4357018,325,87.285
G,9,4271000,sinestep7.wav,None,1000,12,4359019,651,89.285
G,9,4271000,vowelstep1.wav,None,1000,12,4361003,336,91.285
G,9,4271000,vowelstep7.wav,None,1000,12,4363019,331,93.285
G,9,4271000,vowelstep3.wav,None,1000,12,4365019,318,95.285
G,9,4271000,sinestep3.wav,None,1000,12,4367019,316,97.285
G,9,4271000,sinestep1.wav,None,1000,12,4369019,327,99.285
G,9,4271000,sinestep1.wav,None,1000,12,4371019,327,101.285
G,9,4271000,sinestep5.wav,None,1000,12,4373019,327,103.285
G,9,4271000,vowelstep7.wav,None,1000,12,4375020,306,105.285
G,9,4271000,silence.wav,None,1000,12,4377003,312,107.285
G,9,4271000,sinestep3.wav,None,1000,12,4379003,337,109.285
G,9,4271000,vowelstep1.wav,None,1000,12,4381019,347,111.285
G,9,4271000,sinestep3.wav,None,1000,12,4383019,327,113.285
G,9,4271000,sinestep3.wav,None,1000,12,4385019,326,115.285
G,9,4271000,sinestep7.wav,None,1000,12,4387019,326,117.285
G,9,4271000,silence.wav,None,1000,12,4389019,336,119.285
G,9,4271000,vowelstep5.wav,None,1000,12,4391019,316,121.285
G,9,4271000,sinestep1_catch.wav,3,750,12,4393003,316,123.285
G,9,4271000,silence.wav,None,1000,12,4395020,595,125.285
G,9,4271000,sinestep5.wav,None,1000,12,4397003,310,127.285
G,9,4271000,sinestep7.wav,None,1000,12,4399020,345,129.285
G,9,4271000,sinestep3.wav,None,1000,12,4401020,325,131.285
G,9,4271000,sinestep3.wav,None,1000,12,4403020,330,133.285
G,9,4271000,vowelstep5.wav,None,1000,12,4405019,306,135.285
G,9,4271000,sinestep3.wav,None,1000,12,4407019,310,137.285
G,9,4271000,sinestep3_catch.wav,3,681,12,4409003,315,139.285
G,9,4271000,vowelstep1.wav,None,1000,12,4411004,663,141.285
G,9,4271000,vowelstep1.wav,None,1000,12,4413003,344,143.285
G,9,4271000,sinestep5.wav,None,1000,12,4415003,325,145.285
G,9,4271000,silence.wav,None,1000,12,4417003,334,147.285
G,9,4271000,sinestep3.wav,None,1000,12,4419020,334,149.285
G,9,4271000,silence.wav,None,1000,12,4421020,311,151.285
G,9,4271000,vowelstep3.wav,None,1000,12,4423020,315,153.285
G,9,4271000,sinestep5.wav,None,1000,12,4425003,323,155.285
G,9,4271000,vowelstep7.wav,None,1000,12,4427003,345,157.285
G,9,4271000,silence.wav,None,1000,12,4429004,343,159.285
G,9,4271000,sinestep5_catch.wav,3,386,12,4431004,332,161.285
G,9,4271000,vowelstep5.wav,None,1000,12,4433004,945,163.285
G,9,4271000,silence.wav,None,1000,12,4435004,326,165.285
G,9,4271000,vowelstep7.wav,None,1000,12,4437020,332,167.285
G,9,4271000,vowelstep1.wav,None,1000,12,4439020,322,169.285
G,9,4271000,vowelstep1.wav,None,1000,12,4441003,321,171.285
G,9,4271000,vowelstep1.wav,None,1000,12,4443003,352,173.285
G,9,4271000,sinestep5.wav,None,1000,12,4445004,332,175.285
G,9,4271000,vowelstep3.wav,None,1000,12,4447004,332,177.285
G,9,4271000,sinestep1.wav,None,1000,12,4449004,332,179.285
G,9,4271000,vowelstep1.wav,None,1000,12,4451004,342,181.285
G,9,4271000,sinestep1.wav,None,1000,12,4453004,342,183.285
G,9,4271000,sinestep7.wav,None,1000,12,4455020,342,185.285
G,9,4271000,sinestep7.wav,None,1000,12,4457004,323,187.285
G,9,4271000,sinestep3.wav,None,1000,12,4459004,322,189.285
G,9,4271000,sinestep5.wav,None,1000,12,4461003,332,191.285
G,9,4271000,silence.wav,None,1000,12,4463004,332,193.285
G,9,4271000,sinestep7_catch.wav,3,287,12,4465004,327,195.285
G,9,4271000,vowelstep7_catch.wav,None,1000,12,4467004,1050,197.285
G,9,4271000,sinestep7.wav,3,917,12,4469004,340,199.285
G,9,4271000,silence.wav,None,1000,12,4471004,424,201.285
G,9,4271000,sinestep7.wav,None,1000,12,4473004,347,203.285
G,9,4271000,sinestep3.wav,None,1000,12,4475004,328,205.285
G,9,4271000,vowelstep7.wav,None,1000,12,4477004,331,207.285
G,9,4271000,sinestep1.wav,None,1000,12,4479004,329,209.285
G,9,4271000,silence.wav,None,1000,12,4481005,331,211.285
G,9,4271000,silence.wav,None,1000,12,4483005,337,213.285
G,9,4271000,vowelstep7.wav,None,1000,12,4485005,340,215.285
G,9,4271000,vowelstep5.wav,None,1000,12,4487004,318,217.285
G,9,4271000,sinestep7.wav,None,1000,12,4489004,325,219.285
G,9,4271000,vowelstep5.wav,None,1000,12,4491004,330,221.285
G,9,4271000,vowelstep5_catch.wav,3,215,12,4493004,330,223.285
G,9,4271000,vowelstep7.wav,None,1000,12,4495004,1124,225.285
G,9,4271000,silence.wav,None,1000,12,4497004,340,227.285
G,9,4271000,silence.wav,None,1000,12,4499005,339,229.285
G,9,4271000,sinestep1.wav,None,1000,12,4501005,348,231.285
G,9,4271000,silence.wav,None,1000,12,4503005,330,233.285
G,9,4271000,vowelstep7.wav,None,1000,12,4505005,329,235.285
G,9,4271000,vowelstep5.wav,None,1000,12,4507005,329,237.285
G,9,4271000,vowelstep3.wav,None,1000,12,4509005,340,239.285
G,9,4271000,vowelstep3_catch.wav,3,297,12,4511004,339,241.285
G,9,4271000,sinestep1.wav,None,1000,12,4513004,1040,243.285
G,9,4271000,silence.wav,None,1000,12,4515005,348,245.285
G,9,4271000,sinestep7.wav,None,1000,12,4517005,324,247.285
G,9,4271000,sinestep1.wav,None,1000,12,4519005,328,249.285
G,9,4271000,sinestep3.wav,None,1000,12,4521005,327,251.285
G,9,4271000,vowelstep3.wav,None,1000,12,4523005,338,253.285
G,9,4271000,vowelstep1_catch.wav,3,252,12,4525005,333,255.285
G,9,4271000,sinestep7.wav,None,1000,12,4527005,1085,257.285
G,9,4271000,silence.wav,None,1000,12,4529005,334,259.285
G,9,4271000,sinestep5.wav,None,1000,12,4531005,324,261.285
G,9,4271000,sinestep5.wav,None,1000,12,4533006,326,263.285
G,9,4271000,vowelstep5.wav,None,1000,12,4535005,328,265.285
G,9,4271000,sinestep5.wav,None,1000,12,4537005,336,267.285
G,9,4271000,sinestep7.wav,None,1000,12,4539005,337,269.285
G,9,4271000,silence.wav,None,1000,12,4541005,337,271.285
G,9,4271000,vowelstep7_catch.wav,3,227,12,4543005,333,273.285
G,9,4271000,vowelstep5.wav,None,1000,12,4545005,1094,275.285
G,9,4271000,silence.wav,None,1000,12,4547005,322,277.285
G,9,4271000,sinestep3.wav,None,1000,12,4549005,326,279.285
G,9,4271000,vowelstep5.wav,None,1000,12,4551006,327,281.285
G,9,4271000,silence.wav,None,1000,12,4553006,336,283.285
G,9,4271000,vowelstep1.wav,None,1000,12,4555006,336,285.285
G,9,4271000,sinestep1.wav,None,1000,12,4557006,336,287.285
G,9,4271000,vowelstep3.wav,None,1000,12,4559005,316,289.285
G,9,4271000,vowelstep7.wav,None,1000,12,4561005,321,291.285
G,9,4271000,vowelstep7.wav,None,1000,12,4563005,326,293.285
G,9,4271000,sinestep1.wav,None,1000,12,4565005,336,295.285
G,9,4271000,vowelstep5.wav,None,1000,12,4567006,336,297.285
G,9,4271000,silence.wav,None,1000,12,4569006,335,299.285
G,9,4271000,sinestep1.wav,None,1000,12,4571006,335,301.285
G,9,4271000,vowelstep7.wav,None,1000,12,4573006,324,303.285
G,9,4271000,vowelstep5_catch.wav,3,146,12,4575006,325,305.285
G,9,4271000,vowelstep3.wav,None,1000,12,4577006,1177,307.285
G,9,4271000,vowelstep3_catch.wav,3,169,12,4579006,325,309.285
G,9,4271000,sinestep7.wav,None,1000,12,4581006,1165,311.285
G,9,4271000,sinestep5.wav,None,1000,12,4583005,335,313.285
G,9,4271000,vowelstep1.wav,None,1000,12,4585006,344,315.285
G,9,4271000,vowelstep3.wav,None,1000,12,4587006,314,317.285
G,9,4271000,vowelstep1.wav,None,1000,12,4589006,321,319.285