block,count_main_sequence,first_trial_timestamp,fname,response_catch_response,response_time_catch_response,subject_nr,time_stimulus,time_to_pad,timing
P,NA,170517,vowelstep1_catch.wav,1,527,16,170534,0,
P,NA,170517,sinestep7_catch.wav,None,1000,16,172534,896,
P,NA,170517,vowelstep5_catch.wav,1,620,16,174534,427,
P,NA,170517,sinestep7.wav,None,1000,16,176534,805,
P,NA,170517,sinestep7.wav,None,1000,16,211935,-33407,
P,NA,170517,sinestep3.wav,None,1000,16,213485,-32956,
P,NA,170517,sinestep1.wav,None,1000,16,215035,-32505,
P,NA,170517,vowelstep7.wav,None,1000,16,216585,-32064,
P,NA,170517,vowelstep3.wav,None,1000,16,218151,-31624,
P,NA,170517,silence.wav,None,1000,16,219701,-31176,
P,NA,170517,sinestep1.wav,None,1000,16,221268,-30734,
P,NA,170517,vowelstep1.wav,None,1000,16,222852,-30317,
P,NA,170517,sinestep5.wav,None,1000,16,224419,-29895,
P,NA,170517,sinestep1.wav,None,1000,16,225969,-29445,
P,NA,170517,sinestep1.wav,None,1000,16,227535,-29008,
P,NA,170517,vowelstep1.wav,None,1000,16,229085,-28555,
P,NA,170517,silence.wav,None,1000,16,230652,-28116,
P,NA,170517,silence.wav,None,1000,16,232218,-27686,
P,NA,170517,silence.wav,None,1000,16,233785,-27249,
P,NA,170517,sinestep3_catch.wav,1,84,16,235335,-26808,
P,NA,170517,vowelstep7.wav,None,1000,16,235968,-25441,
P,NA,170517,silence.wav,None,1000,16,237535,-25006,
P,NA,170517,vowelstep7.wav,None,1000,16,239101,-24567,
P,NA,170517,vowelstep3.wav,None,1000,16,240652,-24116,
P,NA,170517,silence.wav,None,1000,16,242202,-23677,
P,NA,170517,vowelstep1.wav,None,1000,16,243752,-23228,
P,NA,170517,sinestep3.wav,None,1000,16,245319,-22789,
P,NA,170517,vowelstep1.wav,None,1000,16,246869,-22347,
P,NA,170517,silence.wav,None,1000,16,248419,-21898,
P,NA,170517,sinestep7.wav,None,1000,16,249985,-21458,
P,NA,170517,sinestep5_catch.wav,1,218,16,251535,-21006,
P,NA,170517,silence.wav,None,1000,16,252318,-19785,
P,NA,170517,sinestep7.wav,None,1000,16,253885,-19357,
P,NA,170517,sinestep5.wav,None,1000,16,255435,-18907,
P,NA,170517,sinestep3.wav,None,1000,16,257002,-18467,
P,NA,170517,sinestep1_catch.wav,1,297,16,258569,-18048,
P,NA,170517,vowelstep3_catch.wav,1,445,16,259419,-16897,
P,NA,170517,vowelstep5_catch.wav,1,225,16,260436,-15903,
P,NA,170517,vowelstep7.wav,None,1000,16,261219,-14683,
P,NA,170517,silence.wav,None,1000,16,262786,-14250,
P,NA,170517,vowelstep7_catch.wav,1,426,16,264336,-13809,
P,NA,170517,vowelstep3.wav,None,1000,16,265319,-12785,
P,NA,170517,silence.wav,None,1000,16,266885,-12359,
P,NA,170517,sinestep7_catch.wav,1,428,16,268435,-11908,
P,NA,170517,sinestep7.wav,None,1000,16,269435,-10899,
P,NA,170517,vowelstep5.wav,None,1000,16,271002,-10468,
P,NA,170517,vowelstep3.wav,None,1000,16,272552,-10020,
P,NA,170517,sinestep5.wav,None,1000,16,274102,-9578,
P,NA,170517,sinestep5_catch.wav,1,361,16,275669,-9138,
P,NA,170517,sinestep3.wav,None,1000,16,276586,-8051,
P,NA,170517,silence.wav,None,1000,16,278153,-7620,
P,NA,170517,vowelstep7.wav,None,1000,16,279703,-7169,
P,NA,170517,sinestep3_catch.wav,1,413,16,281253,-6729,
P,NA,170517,vowelstep5.wav,None,1000,16,282236,-5703,
P,NA,170517,silence.wav,None,1000,16,283786,-5259,
P,NA,170517,sinestep1.wav,None,1000,16,285352,-4820,
P,NA,170517,vowelstep1.wav,None,1000,16,286919,-4398,
P,NA,170517,silence.wav,None,1000,16,288486,-3950,
P,NA,170517,silence.wav,None,1000,16,290036,-3510,
P,NA,170517,silence.wav,None,1000,16,291602,-3069,
P,NA,170517,sinestep1_catch.wav,1,286,16,293170,-2639,
P,NA,170517,sinestep1.wav,None,1000,16,294020,-1488,
P,NA,170517,silence.wav,None,1000,16,295586,-1061,
P,NA,170517,vowelstep1_catch.wav,1,316,16,297136,-611,
P,NA,170517,vowelstep5.wav,None,1000,16,298536,512,
P,NA,170517,sinestep5.wav,None,1000,16,300536,438,
P,NA,170517,vowelstep3.wav,None,1000,16,302536,439,
P,NA,170517,silence.wav,None,1000,16,304536,449,
P,NA,170517,silence.wav,None,1000,16,306536,418,
P,NA,170517,sinestep7.wav,None,1000,16,308536,428,
P,NA,170517,vowelstep5.wav,None,1000,16,310520,428,
P,NA,170517,silence.wav,None,1000,16,312537,454,
P,NA,170517,vowelstep3_catch.wav,1,295,16,314537,436,
P,NA,170517,silence.wav,None,1000,16,316536,1141,
P,NA,170517,vowelstep5.wav,None,1000,16,318536,436,
P,NA,170517,vowelstep5_catch.wav,1,347,16,320536,427,
P,NA,170517,vowelstep7_catch.wav,1,490,16,322536,1080,
P,NA,170517,sinestep3.wav,None,1000,16,324536,934,
P,NA,170517,vowelstep5.wav,None,1000,16,326536,427,
P,NA,170517,vowelstep3.wav,None,1000,16,328520,436,
P,NA,170517,silence.wav,None,1000,16,330520,455,
P,NA,170517,sinestep3.wav,None,1000,16,332520,466,
P,NA,170517,silence.wav,None,1000,16,334520,446,
P,NA,170517,sinestep7_catch.wav,1,243,16,336537,447,
P,NA,170517,sinestep5_catch.wav,1,356,16,338537,1182,
P,NA,170517,sinestep5.wav,None,1000,16,340536,1077,
P,NA,170517,sinestep5.wav,None,1000,16,342536,433,
P,NA,170517,vowelstep7.wav,None,1000,16,344536,433,
P,NA,170517,sinestep3_catch.wav,1,184,16,346521,435,
P,NA,170517,vowelstep1.wav,None,1000,16,348520,1260,
A,0,798486,sinestep5_catch.wav,1,653,16,798494,0,1.285
A,0,798486,vowelstep1.wav,None,1000,16,800495,689,3.285
A,0,798486,vowelstep3.wav,None,1000,16,802494,343,5.285
A,0,798486,sinestep1.wav,None,1000,16,804494,335,7.285
A,0,798486,sinestep5_catch.wav,1,94,16,806494,335,9.285
A,0,798486,sinestep7.wav,None,1000,16,808494,1242,11.285
A,0,798486,sinestep3.wav,None,1000,16,810494,333,13.285
A,0,798486,silence.wav,None,1000,16,812494,347,15.285
A,0,798486,vowelstep7.wav,None,1000,16,814494,347,17.285
A,0,798486,sinestep7.wav,None,1000,16,816494,358,19.285
A,0,798486,vowelstep5_catch.wav,1,154,16,818495,357,21.285
A,0,798486,sinestep7.wav,None,1000,16,820495,1183,23.285
A,0,798486,sinestep3.wav,None,1000,16,822495,336,25.285
A,0,798486,silence.wav,None,1000,16,824495,333,27.285
A,0,798486,sinestep3.wav,None,1000,16,826494,348,29.285
A,0,798486,sinestep5_catch.wav,1,93,16,828494,347,31.285
A,0,798486,sinestep1.wav,None,1000,16,830494,1251,33.285
A,0,798486,sinestep1.wav,None,1000,16,832494,327,35.285
A,0,798486,sinestep5.wav,None,1000,16,834495,337,37.285
A,0,798486,vowelstep3.wav,None,1000,16,836495,337,39.285
A,0,798486,vowelstep5.wav,None,1000,16,838495,336,41.285
A,0,798486,vowelstep3.wav,None,1000,16,840495,347,43.285
A,0,798486,vowelstep1.wav,None,1000,16,842495,346,45.285
A,0,798486,vowelstep3.wav,None,1000,16,844495,348,47.285
A,0,798486,sinestep3.wav,None,1000,16,846495,354,49.285
A,0,798486,sinestep7.wav,None,1000,16,848495,337,51.285
A,0,798486,sinestep5.wav,None,1000,16,850494,333,53.285
A,0,798486,vowelstep7_catch.wav,1,91,16,852495,338,55.285
A,0,798486,silence.wav,None,1000,16,854495,1238,57.285
A,0,798486,vowelstep3.wav,None,1000,16,856495,342,59.285
A,0,798486,vowelstep1.wav,None,1000,16,858495,346,61.285
A,0,798486,silence.wav,None,1000,16,860495,354,63.285
A,0,798486,sinestep3.wav,None,1000,16,862495,335,65.285
A,0,798486,sinestep7.wav,None,1000,16,864495,333,67.285
A,0,798486,sinestep5.wav,None,1000,16,866495,335,69.285
A,0,798486,sinestep5.wav,None,1000,16,868495,340,71.285
A,0,798486,sinestep7.wav,None,1000,16,870496,344,73.285
A,0,798486,sinestep1.wav,None,1000,16,872496,342,75.285
A,0,798486,sinestep5.wav,None,1000,16,874495,352,77.285
A,0,798486,vowelstep1.wav,None,1000,16,876495,333,79.285
A,0,798486,sinestep1.wav,None,1000,16,878495,329,81.285
A,0,798486,vowelstep5.wav,None,1000,16,880495,331,83.285
A,0,798486,sinestep1.wav,None,1000,16,882495,344,85.285
A,0,798486,silence.wav,None,1000,16,884495,341,87.285
A,0,798486,vowelstep1.wav,None,1000,16,886495,344,89.285
A,0,798486,sinestep3.wav,None,1000,16,888496,353,91.285
A,0,798486,vowelstep5.wav,None,1000,16,890496,331,93.285
A,0,798486,vowelstep5.wav,None,1000,16,892496,334,95.285
A,0,798486,vowelstep5.wav,None,1000,16,894496,333,97.285
A,0,798486,vowelstep7.wav,None,1000,16,896496,339,99.285
A,0,798486,vowelstep3.wav,None,1000,16,898495,339,101.285
A,0,798486,sinestep1.wav,None,1000,16,900495,341,103.285
A,0,798486,sinestep1.wav,None,1000,16,902495,350,105.285
A,0,798486,vowelstep7.wav,None,1000,16,904496,330,107.285
A,0,798486,vowelstep1.wav,None,1000,16,906496,330,109.285
A,0,798486,vowelstep7.wav,None,1000,16,908496,331,111.285
A,0,798486,silence.wav,None,1000,16,910496,340,113.285
A,0,798486,sinestep1.wav,None,1000,16,912496,340,115.285
A,0,798486,vowelstep1.wav,None,1000,16,914496,342,117.285
A,0,798486,silence.wav,None,1000,16,916496,337,119.285
A,0,798486,vowelstep1.wav,None,1000,16,918496,352,121.285
A,0,798486,vowelstep3.wav,None,1000,16,920496,329,123.285
A,0,798486,vowelstep1.wav,None,1000,16,922496,331,125.285
A,0,798486,sinestep7.wav,None,1000,16,924496,331,127.285
A,0,798486,silence.wav,None,1000,16,926496,340,129.285
A,0,798486,vowelstep1.wav,None,1000,16,928496,333,131.285
A,0,798486,silence.wav,None,1000,16,930496,341,133.285
A,0,798486,sinestep7.wav,None,1000,16,932496,341,135.285
A,0,798486,vowelstep5.wav,None,1000,16,934496,350,137.285
A,0,798486,sinestep7.wav,None,1000,16,936496,348,139.285
A,0,798486,sinestep3.wav,None,1000,16,938496,360,141.285
A,0,798486,vowelstep5.wav,None,1000,16,940497,340,143.285
A,0,798486,silence.wav,None,1000,16,942497,339,145.285
A,0,798486,sinestep3.wav,None,1000,16,944497,335,147.285
A,0,798486,sinestep5.wav,None,1000,16,946497,348,149.285
A,0,798486,sinestep3.wav,None,1000,16,948496,347,151.285
A,0,798486,vowelstep3.wav,None,1000,16,950496,349,153.285
A,0,798486,sinestep3.wav,None,1000,16,952496,326,155.285
A,0,798486,vowelstep7_catch.wav,1,151,16,954496,339,157.285
A,0,798486,vowelstep7.wav,None,1000,16,956496,1187,159.285
A,0,798486,vowelstep5.wav,None,1000,16,958497,339,161.285
A,0,798486,sinestep5.wav,None,1000,16,960497,349,163.285
A,0,798486,silence.wav,None,1000,16,962497,345,165.285
A,0,798486,sinestep5.wav,None,1000,16,964497,351,167.285
A,0,798486,vowelstep5_catch.wav,1,174,16,966497,356,169.285
A,0,798486,silence.wav,None,1000,16,968497,1162,171.285
A,0,798486,sinestep7.wav,None,1000,16,970497,337,173.285
A,0,798486,sinestep5.wav,None,1000,16,972496,338,175.285
A,0,798486,sinestep7.wav,None,1000,16,974497,347,177.285
A,0,798486,vowelstep3.wav,None,1000,16,976497,340,179.285
A,0,798486,sinestep5.wav,None,1000,16,978497,347,181.285
A,0,798486,vowelstep1.wav,None,1000,16,980497,354,183.285
A,0,798486,vowelstep5.wav,None,1000,16,982497,336,185.285
A,0,798486,sinestep5.wav,None,1000,16,984497,335,187.285
A,0,798486,vowelstep1.wav,None,1000,16,986497,334,189.285
A,0,798486,silence.wav,None,1000,16,988497,348,191.285
A,0,798486,sinestep1.wav,None,1000,16,990497,344,193.285
A,0,798486,vowelstep5.wav,None,1000,16,992498,345,195.285
A,0,798486,sinestep3.wav,None,1000,16,994498,353,197.285
A,0,798486,silence.wav,None,1000,16,996497,322,199.285
A,0,798486,vowelstep3.wav,None,1000,16,998497,336,201.285
A,0,798486,vowelstep3_catch.wav,1,230,16,1000497,336,203.285
A,0,798486,vowelstep5.wav,None,1000,16,1002497,1115,205.285
A,0,798486,vowelstep1_catch.wav,1,384,16,1004497,345,207.285
A,0,798486,silence.wav,None,1000,16,1006497,959,209.285
A,0,798486,sinestep3.wav,None,1000,16,1008497,342,211.285
A,0,798486,vowelstep5.wav,None,1000,16,1010498,336,213.285
A,0,798486,silence.wav,None,1000,16,1012498,320,215.285
A,0,798486,sinestep5.wav,None,1000,16,1014498,336,217.285
A,0,798486,vowelstep7.wav,None,1000,16,1016498,333,219.285
A,0,798486,silence.wav,None,1000,16,1018498,344,221.285
A,0,798486,vowelstep3.wav,None,1000,16,1020497,344,223.285
A,0,798486,sinestep7.wav,None,1000,16,1022497,323,225.285
A,0,798486,silence.wav,None,1000,16,1024497,324,227.285
A,0,798486,vowelstep3.wav,None,1000,16,1026497,334,229.285
A,0,798486,vowelstep5.wav,None,1000,16,1028498,332,231.285
A,0,798486,vowelstep7.wav,None,1000,16,1030498,329,233.285
A,0,798486,vowelstep3.wav,None,1000,16,1032498,336,235.285
A,0,798486,vowelstep5.wav,None,1000,16,1034498,343,237.285
A,0,798486,sinestep1_catch.wav,1,135,16,1036498,344,239.285
A,0,798486,sinestep3.wav,None,1000,16,1038498,1194,241.285
A,0,798486,sinestep1.wav,None,1000,16,1040498,330,243.285
A,0,798486,sinestep3_catch.wav,1,239,16,1042498,330,245.285
A,0,798486,sinestep7.wav,None,1000,16,1044498,1086,247.285
A,0,798486,vowelstep1.wav,None,1000,16,1046498,343,249.285
A,0,798486,sinestep3.wav,None,1000,16,1048498,340,251.285
A,0,798486,vowelstep7.wav,None,1000,16,1050498,348,253.285
A,0,798486,silence.wav,None,1000,16,1052498,347,255.285
A,0,798486,sinestep1.wav,None,1000,16,1054498,334,257.285
A,0,798486,silence.wav,None,1000,16,1056498,333,259.285
A,0,798486,vowelstep5.wav,None,1000,16,1058498,333,261.285
A,0,798486,sinestep5_catch.wav,1,212,16,1060498,343,263.285
A,0,798486,vowelstep7.wav,None,1000,16,1062499,1130,265.285
A,0,798486,sinestep3.wav,None,1000,16,1064499,340,267.285
A,0,798486,vowelstep1.wav,None,1000,16,1066499,352,269.285
A,0,798486,vowelstep3.wav,None,1000,16,1068498,332,271.285
A,0,798486,sinestep7_catch.wav,1,298,16,1070498,332,273.285
A,0,798486,silence.wav,None,1000,16,1072498,1032,275.285
A,0,798486,vowelstep7.wav,None,1000,16,1074498,340,277.285
A,0,798486,sinestep7.wav,None,1000,16,1076498,340,279.285
A,0,798486,sinestep1.wav,None,1000,16,1078498,341,281.285
A,0,798486,vowelstep7.wav,None,1000,16,1080499,350,283.285
A,0,798486,sinestep5.wav,None,1000,16,1082499,330,285.285
A,0,798486,sinestep5.wav,None,1000,16,1084499,330,287.285
A,0,798486,sinestep7_catch.wav,1,430,16,1086499,330,289.285
A,0,798486,sinestep5.wav,None,1000,16,1088499,909,291.285
A,0,798486,silence.wav,None,1000,16,1090499,341,293.285
A,0,798486,vowelstep3.wav,None,1000,16,1092498,342,295.285
A,0,798486,silence.wav,None,1000,16,1094498,347,297.285
A,0,798486,vowelstep1.wav,None,1000,16,1096498,320,299.285
A,0,798486,sinestep1.wav,None,1000,16,1098499,329,301.285
A,0,798486,sinestep7.wav,None,1000,16,1100499,327,303.285
A,0,798486,vowelstep7.wav,None,1000,16,1102499,334,305.285
A,0,798486,sinestep1_catch.wav,1,174,16,1104499,338,307.285
A,0,798486,silence.wav,None,1000,16,1106499,1164,309.285
A,0,798486,silence.wav,None,1000,16,1108499,347,311.285
A,0,798486,vowelstep7.wav,None,1000,16,1110499,329,313.285
A,0,798486,sinestep1.wav,None,1000,16,1112499,328,315.285
A,0,798486,vowelstep7.wav,None,1000,16,1114500,328,317.285
A,0,798486,vowelstep7.wav,None,1000,16,1116499,336,319.285
E,1,1182670,vowelstep7.wav,None,1000,16,1182683,0,1.285
E,1,1182670,sinestep3.wav,None,1000,16,1184684,318,3.285
E,1,1182670,sinestep5.wav,None,1000,16,1186684,324,5.285
E,1,1182670,sinestep1.wav,None,1000,16,1188684,328,7.285
E,1,1182670,sinestep5.wav,None,1000,16,1190684,337,9.285
E,1,1182670,silence.wav,None,1000,16,1192684,337,11.285
E,1,1182670,vowelstep1.wav,None,1000,16,1194684,338,13.285
E,1,1182670,vowelstep7.wav,None,1000,16,1196684,334,15.285
E,1,1182670,vowelstep1.wav,None,1000,16,1198683,319,17.285
E,1,1182670,sinestep1_catch.wav,1,95,16,1200683,324,19.285
E,1,1182670,vowelstep5.wav,None,1000,16,1202684,1230,21.285
E,1,1182670,sinestep5.wav,None,1000,16,1204684,324,23.285
E,1,1182670,vowelstep5.wav,None,1000,16,1206684,338,25.285
E,1,1182670,vowelstep3.wav,None,1000,16,1208684,338,27.285
E,1,1182670,sinestep1.wav,None,1000,16,1210684,338,29.285
E,1,1182670,vowelstep5.wav,None,1000,16,1212684,317,31.285
E,1,1182670,silence.wav,None,1000,16,1214684,325,33.285
E,1,1182670,silence.wav,None,1000,16,1216684,327,35.285
E,1,1182670,sinestep3.wav,None,1000,16,1218684,337,37.285
E,1,1182670,sinestep3.wav,None,1000,16,1220685,337,39.285
E,1,1182670,sinestep3.wav,None,1000,16,1222684,336,41.285
E,1,1182670,sinestep1.wav,None,1000,16,1224684,337,43.285
E,1,1182670,vowelstep1.wav,None,1000,16,1226684,315,45.285
E,1,1182670,sinestep1.wav,None,1000,16,1228684,325,47.285
E,1,1182670,vowelstep7.wav,None,1000,16,1230684,324,49.285
E,1,1182670,vowelstep5.wav,None,1000,16,1232684,323,51.285
E,1,1182670,sinestep7.wav,None,1000,16,1234684,337,53.285
E,1,1182670,sinestep1.wav,None,1000,16,1236685,337,55.285
E,1,1182670,vowelstep5.wav,None,1000,16,1238685,336,57.285
E,1,1182670,sinestep3.wav,None,1000,16,1240685,344,59.285
E,1,1182670,vowelstep1.wav,None,1000,16,1242685,325,61.285
E,1,1182670,vowelstep5.wav,None,1000,16,1244685,325,63.285
E,1,1182670,vowelstep3.wav,None,1000,16,1246684,325,65.285
E,1,1182670,sinestep1.wav,None,1000,16,1248684,334,67.285
E,1,1182670,vowelstep3.wav,None,1000,16,1250684,332,69.285
E,1,1182670,silence.wav,None,1000,16,1252684,332,71.285
E,1,1182670,vowelstep3.wav,None,1000,16,1254685,343,73.285
E,1,1182670,sinestep3_catch.wav,1,304,16,1256685,342,75.285
E,1,1182670,sinestep3.wav,None,1000,16,1258685,1038,77.285
E,1,1182670,vowelstep3.wav,None,1000,16,1260685,342,79.285
E,1,1182670,vowelstep7.wav,None,1000,16,1262685,333,81.285
E,1,1182670,silence.wav,None,1000,16,1264685,334,83.285
E,1,1182670,sinestep3.wav,None,1000,16,1266685,335,85.285
E,1,1182670,silence.wav,None,1000,16,1268685,336,87.285
E,1,1182670,sinestep1.wav,None,1000,16,1270684,324,89.285
E,1,1182670,sinestep5_catch.wav,1,187,16,1272685,342,91.285
E,1,1182670,vowelstep3.wav,None,1000,16,1274685,1165,93.285
E,1,1182670,sinestep5.wav,None,1000,16,1276685,320,95.285
E,1,1182670,vowelstep7.wav,None,1000,16,1278685,332,97.285
E,1,1182670,sinestep1.wav,None,1000,16,1280685,331,99.285
E,1,1182670,sinestep5.wav,None,1000,16,1282685,342,101.285
E,1,1182670,sinestep5.wav,None,1000,16,1284685,343,103.285
E,1,1182670,vowelstep7.wav,None,1000,16,1286685,339,105.285
E,1,1182670,vowelstep3.wav,None,1000,16,1288685,337,107.285
E,1,1182670,vowelstep7.wav,None,1000,16,1290686,331,109.285
E,1,1182670,sinestep5.wav,None,1000,16,1292686,331,111.285
E,1,1182670,vowelstep3.wav,None,1000,16,1294685,332,113.285
E,1,1182670,vowelstep7.wav,None,1000,16,1296685,327,115.285
E,1,1182670,sinestep3.wav,None,1000,16,1298685,339,117.285
E,1,1182670,vowelstep7.wav,None,1000,16,1300685,339,119.285
E,1,1182670,silence.wav,None,1000,16,1302685,342,121.285
E,1,1182670,silence.wav,None,1000,16,1304685,352,123.285
E,1,1182670,sinestep7.wav,None,1000,16,1306686,333,125.285
E,1,1182670,sinestep7_catch.wav,1,198,16,1308686,331,127.285
E,1,1182670,sinestep7.wav,None,1000,16,1310686,1139,129.285
E,1,1182670,silence.wav,None,1000,16,1312686,336,131.285
E,1,1182670,sinestep7_catch.wav,1,486,16,1314686,339,133.285
E,1,1182670,sinestep7.wav,None,1000,16,1316686,854,135.285
E,1,1182670,sinestep5_catch.wav,1,188,16,1318685,319,137.285
E,1,1182670,sinestep1.wav,None,1000,16,1320685,1137,139.285
E,1,1182670,sinestep1.wav,None,1000,16,1322685,331,141.285
E,1,1182670,sinestep1.wav,None,1000,16,1324686,329,143.285
E,1,1182670,sinestep3.wav,None,1000,16,1326686,340,145.285
E,1,1182670,vowelstep5.wav,None,1000,16,1328686,339,147.285
E,1,1182670,silence.wav,None,1000,16,1330686,339,149.285
E,1,1182670,sinestep3_catch.wav,1,177,16,1332686,345,151.285
E,1,1182670,silence.wav,None,1000,16,1334686,1150,153.285
E,1,1182670,sinestep7.wav,None,1000,16,1336686,323,155.285
E,1,1182670,sinestep5.wav,None,1000,16,1338686,331,157.285
E,1,1182670,silence.wav,None,1000,16,1340686,338,159.285
E,1,1182670,vowelstep5.wav,None,1000,16,1342686,339,161.285
E,1,1182670,vowelstep1.wav,None,1000,16,1344686,340,163.285
E,1,1182670,vowelstep3.wav,None,1000,16,1346686,319,165.285
E,1,1182670,sinestep5.wav,None,1000,16,1348686,325,167.285
E,1,1182670,sinestep7.wav,None,1000,16,1350686,329,169.285
E,1,1182670,vowelstep1.wav,None,1000,16,1352686,328,171.285
E,1,1182670,vowelstep7.wav,None,1000,16,1354686,338,173.285
E,1,1182670,sinestep3.wav,None,1000,16,1356686,333,175.285
E,1,1182670,silence.wav,None,1000,16,1358686,339,177.285
E,1,1182670,sinestep1_catch.wav,1,263,16,1360687,345,179.285
E,1,1182670,sinestep7.wav,None,1000,16,1362687,1064,181.285
E,1,1182670,vowelstep1.wav,None,1000,16,1364687,327,183.285
E,1,1182670,sinestep5.wav,None,1000,16,1366687,328,185.285
E,1,1182670,sinestep5.wav,None,1000,16,1368686,333,187.285
E,1,1182670,vowelstep1.wav,None,1000,16,1370686,335,189.285
E,1,1182670,sinestep7.wav,None,1000,16,1372686,335,191.285
E,1,1182670,sinestep3.wav,None,1000,16,1374686,346,193.285
E,1,1182670,sinestep7.wav,None,1000,16,1376687,313,195.285
E,1,1182670,silence.wav,None,1000,16,1378687,325,197.285
E,1,1182670,vowelstep1.wav,None,1000,16,1380687,324,199.285
E,1,1182670,sinestep1.wav,None,1000,16,1382687,329,201.285
E,1,1182670,vowelstep1.wav,None,1000,16,1384687,333,203.285
E,1,1182670,vowelstep1.wav,None,1000,16,1386687,335,205.285
E,1,1182670,vowelstep1_catch.wav,1,263,16,1388687,346,207.285
E,1,1182670,vowelstep1.wav,None,1000,16,1390687,1054,209.285
E,1,1182670,vowelstep1.wav,None,1000,16,1392686,326,211.285
E,1,1182670,silence.wav,None,1000,16,1394687,325,213.285
E,1,1182670,sinestep7.wav,None,1000,16,1396687,335,215.285
E,1,1182670,vowelstep7.wav,None,1000,16,1398687,336,217.285
E,1,1182670,vowelstep3_catch.wav,1,283,16,1400687,334,219.285
E,1,1182670,vowelstep5.wav,None,1000,16,1402687,1050,221.285
E,1,1182670,sinestep3.wav,None,1000,16,1404687,345,223.285
E,1,1182670,silence.wav,None,1000,16,1406687,324,225.285
E,1,1182670,sinestep1.wav,None,1000,16,1408687,321,227.285
E,1,1182670,sinestep5.wav,None,1000,16,1410687,324,229.285
E,1,1182670,sinestep5.wav,None,1000,16,1412688,332,231.285
E,1,1182670,sinestep3.wav,None,1000,16,1414688,333,233.285
E,1,1182670,sinestep5.wav,None,1000,16,1416687,332,235.285
E,1,1182670,vowelstep3.wav,None,1000,16,1418687,315,237.285
E,1,1182670,sinestep7.wav,None,1000,16,1420687,325,239.285
E,1,1182670,sinestep7.wav,None,1000,16,1422687,324,241.285
E,1,1182670,silence.wav,None,1000,16,1424687,330,243.285
E,1,1182670,sinestep3.wav,None,1000,16,1426687,334,245.285
E,1,1182670,sinestep3.wav,None,1000,16,1428687,331,247.285
E,1,1182670,vowelstep3.wav,None,1000,16,1430688,332,249.285
E,1,1182670,silence.wav,None,1000,16,1432688,324,251.285
E,1,1182670,sinestep7.wav,None,1000,16,1434688,321,253.285
E,1,1182670,silence.wav,None,1000,16,1436688,320,255.285
E,1,1182670,vowelstep7.wav,None,1000,16,1438688,321,257.285
E,1,1182670,vowelstep3.wav,None,1000,16,1440687,331,259.285
E,1,1182670,silence.wav,None,1000,16,1442687,332,261.285
E,1,1182670,vowelstep3.wav,None,1000,16,1444687,332,263.285
E,1,1182670,vowelstep1.wav,None,1000,16,1446688,312,265.285
E,1,1182670,vowelstep5.wav,None,1000,16,1448688,320,267.285
E,1,1182670,silence.wav,None,1000,16,1450688,323,269.285
E,1,1182670,vowelstep3.wav,None,1000,16,1452688,333,271.285
E,1,1182670,sinestep1.wav,None,1000,16,1454688,333,273.285
E,1,1182670,vowelstep5_catch.wav,1,398,16,1456688,330,275.285
E,1,1182670,sinestep7.wav,None,1000,16,1458688,931,277.285
E,1,1182670,sinestep7.wav,None,1000,16,1460688,312,279.285
E,1,1182670,vowelstep7.wav,None,1000,16,1462688,318,281.285
E,1,1182670,silence.wav,None,1000,16,1464688,316,283.285
E,1,1182670,sinestep5.wav,None,1000,16,1466688,321,285.285
E,1,1182670,silence.wav,None,1000,16,1468688,330,287.285
E,1,1182670,silence.wav,None,1000,16,1470688,327,289.285
E,1,1182670,vowelstep5.wav,None,1000,16,1472688,330,291.285
E,1,1182670,vowelstep5.wav,None,1000,16,1474688,341,293.285
E,1,1182670,silence.wav,None,1000,16,1476688,320,295.285
E,1,1182670,vowelstep5.wav,None,1000,16,1478688,321,297.285
E,1,1182670,vowelstep7_catch.wav,None,1000,16,1480688,322,299.285
E,1,1182670,vowelstep7_catch.wav,None,1000,16,1482689,321,301.285
E,1,1182670,vowelstep5.wav,None,1000,16,1484689,327,303.285
E,1,1182670,sinestep1.wav,None,1000,16,1486689,327,305.285
E,1,1182670,vowelstep3.wav,None,1000,16,1488688,335,307.285
E,1,1182670,vowelstep5_catch.wav,1,169,16,1490688,308,309.285
E,1,1182670,vowelstep7.wav,None,1000,16,1492688,1168,311.285
E,1,1182670,vowelstep5.wav,None,1000,16,1494688,318,313.285
E,1,1182670,vowelstep7.wav,None,1000,16,1496688,327,315.285
E,1,1182670,vowelstep1.wav,None,1000,16,1498688,331,317.285
E,1,1182670,vowelstep3_catch.wav,1,64,16,1500689,328,319.285
J,2,1558045,sinestep5_catch.wav,1,258,16,1558056,0,1.285
J,2,1558045,sinestep5.wav,None,1000,16,1560056,1066,3.285
J,2,1558045,sinestep3.wav,None,1000,16,1562056,338,5.285
J,2,1558045,sinestep1.wav,None,1000,16,1564056,341,7.285
J,2,1558045,sinestep7.wav,None,1000,16,1566056,347,9.285
J,2,1558045,vowelstep3.wav,None,1000,16,1568056,351,11.285
J,2,1558045,sinestep1.wav,None,1000,16,1570057,329,13.285
J,2,1558045,vowelstep5.wav,None,1000,16,1572057,330,15.285
J,2,1558045,vowelstep3.wav,None,1000,16,1574057,336,17.285
J,2,1558045,vowelstep1.wav,None,1000,16,1576057,339,19.285
J,2,1558045,vowelstep1.wav,None,1000,16,1578056,339,21.285
J,2,1558045,sinestep3.wav,None,1000,16,1580056,340,23.285
J,2,1558045,silence.wav,None,1000,16,1582056,348,25.285
J,2,1558045,vowelstep7.wav,None,1000,16,1584056,331,27.285
J,2,1558045,sinestep3.wav,None,1000,16,1586056,330,29.285
J,2,1558045,sinestep7.wav,None,1000,16,1588057,327,31.285
J,2,1558045,silence.wav,None,1000,16,1590057,339,33.285
J,2,1558045,vowelstep5.wav,None,1000,16,1592057,340,35.285
J,2,1558045,sinestep1.wav,None,1000,16,1594057,339,37.285
J,2,1558045,sinestep1_catch.wav,1,367,16,1596057,348,39.285
J,2,1558045,sinestep7.wav,None,1000,16,1598057,962,41.285
J,2,1558045,vowelstep7.wav,None,1000,16,1600057,325,43.285
J,2,1558045,sinestep3_catch.wav,1,375,16,1602056,329,45.285
J,2,1558045,vowelstep3.wav,None,1000,16,1604057,961,47.285
J,2,1558045,vowelstep7.wav,None,1000,16,1606057,338,49.285
J,2,1558045,sinestep1.wav,None,1000,16,1608057,338,51.285
J,2,1558045,vowelstep3.wav,None,1000,16,1610057,318,53.285
J,2,1558045,vowelstep1.wav,None,1000,16,1612057,326,55.285
J,2,1558045,sinestep5.wav,None,1000,16,1614057,324,57.285
J,2,1558045,sinestep5_catch.wav,1,563,16,1616057,328,59.285
J,2,1558045,sinestep5.wav,None,1000,16,1618057,771,61.285
J,2,1558045,vowelstep7.wav,None,1000,16,1620057,338,63.285
J,2,1558045,sinestep7.wav,None,1000,16,1622058,335,65.285
J,2,1558045,vowelstep1.wav,None,1000,16,1624058,335,67.285
J,2,1558045,sinestep7_catch.wav,1,280,16,1626058,327,69.285
J,2,1558045,silence.wav,None,1000,16,1628057,1048,71.285
J,2,1558045,vowelstep5.wav,None,1000,16,1630057,324,73.285
J,2,1558045,sinestep5.wav,None,1000,16,1632057,337,75.285
J,2,1558045,sinestep5.wav,None,1000,16,1634057,335,77.285
J,2,1558045,vowelstep3.wav,None,1000,16,1636057,337,79.285
J,2,1558045,vowelstep5.wav,None,1000,16,1638057,347,81.285
J,2,1558045,sinestep3.wav,None,1000,16,1640058,323,83.285
J,2,1558045,silence.wav,None,1000,16,1642058,325,85.285
J,2,1558045,vowelstep3.wav,None,1000,16,1644058,326,87.285
J,2,1558045,vowelstep7.wav,None,1000,16,1646058,337,89.285
J,2,1558045,silence.wav,None,1000,16,1648058,334,91.285
J,2,1558045,sinestep3.wav,None,1000,16,1650057,337,93.285
J,2,1558045,silence.wav,None,1000,16,1652057,337,95.285
J,2,1558045,sinestep1.wav,None,1000,16,1654057,325,97.285
J,2,1558045,sinestep5_catch.wav,1,433,16,1656057,347,99.285
J,2,1558045,sinestep7.wav,None,1000,16,1658058,892,101.285
J,2,1558045,sinestep5.wav,None,1000,16,1660058,325,103.285
J,2,1558045,sinestep5.wav,None,1000,16,1662058,335,105.285
J,2,1558045,sinestep3.wav,None,1000,16,1664058,332,107.285
J,2,1558045,sinestep3_catch.wav,1,328,16,1666058,336,109.285
J,2,1558045,sinestep3.wav,None,1000,16,1668058,1013,111.285
J,2,1558045,silence.wav,None,1000,16,1670058,322,113.285
J,2,1558045,sinestep1.wav,None,1000,16,1672058,321,115.285
J,2,1558045,silence.wav,None,1000,16,1674059,319,117.285
J,2,1558045,vowelstep3.wav,None,1000,16,1676058,335,119.285
J,2,1558045,vowelstep5.wav,None,1000,16,1678058,333,121.285
J,2,1558045,vowelstep7.wav,None,1000,16,1680058,334,123.285
J,2,1558045,silence.wav,None,1000,16,1682058,344,125.285
J,2,1558045,sinestep1.wav,None,1000,16,1684058,343,127.285
J,2,1558045,sinestep3.wav,None,1000,16,1686058,345,129.285
J,2,1558045,sinestep7.wav,None,1000,16,1688058,354,131.285
J,2,1558045,silence.wav,None,1000,16,1690058,334,133.285
J,2,1558045,sinestep1.wav,None,1000,16,1692059,331,135.285
J,2,1558045,vowelstep7.wav,None,1000,16,1694059,329,137.285
J,2,1558045,sinestep5.wav,None,1000,16,1696059,341,139.285
J,2,1558045,vowelstep1.wav,None,1000,16,1698059,342,141.285
J,2,1558045,vowelstep7.wav,None,1000,16,1700058,352,143.285
J,2,1558045,vowelstep3.wav,None,1000,16,1702058,323,145.285
J,2,1558045,vowelstep3.wav,None,1000,16,1704058,330,147.285
J,2,1558045,sinestep7.wav,None,1000,16,1706058,332,149.285
J,2,1558045,vowelstep5.wav,None,1000,16,1708058,332,151.285
J,2,1558045,silence.wav,None,1000,16,1710059,341,153.285
J,2,1558045,sinestep1.wav,None,1000,16,1712059,338,155.285
J,2,1558045,sinestep3.wav,None,1000,16,1714059,342,157.285
J,2,1558045,silence.wav,None,1000,16,1716059,351,159.285
J,2,1558045,sinestep1.wav,None,1000,16,1718059,332,161.285
J,2,1558045,vowelstep7.wav,None,1000,16,1720059,332,163.285
J,2,1558045,vowelstep7.wav,None,1000,16,1722059,330,165.285
J,2,1558045,sinestep1_catch.wav,1,246,16,1724058,341,167.285
J,2,1558045,vowelstep1_catch.wav,None,1000,16,1726059,1093,169.285
J,2,1558045,vowelstep1.wav,None,1000,16,1728059,340,171.285
J,2,1558045,vowelstep7.wav,None,1000,16,1730059,351,173.285
J,2,1558045,sinestep1.wav,None,1000,16,1732059,330,175.285
J,2,1558045,vowelstep5.wav,None,1000,16,1734059,331,177.285
J,2,1558045,vowelstep5.wav,None,1000,16,1736059,327,179.285
J,2,1558045,sinestep5.wav,None,1000,16,1738059,341,181.285
J,2,1558045,sinestep7.wav,None,1000,16,1740059,336,183.285
J,2,1558045,sinestep7.wav,None,1000,16,1742059,341,185.285
J,2,1558045,sinestep1.wav,None,1000,16,1744060,349,187.285
J,2,1558045,vowelstep1.wav,None,1000,16,1746060,320,189.285
J,2,1558045,silence.wav,None,1000,16,1748059,325,191.285
J,2,1558045,sinestep5.wav,None,1000,16,1750059,327,193.285
J,2,1558045,vowelstep5.wav,None,1000,16,1752059,337,195.285
J,2,1558045,vowelstep1.wav,None,1000,16,1754059,340,197.285
J,2,1558045,vowelstep1.wav,None,1000,16,1756059,340,199.285
J,2,1558045,sinestep3.wav,None,1000,16,1758059,338,201.285
J,2,1558045,sinestep3.wav,None,1000,16,1760059,341,203.285
J,2,1558045,silence.wav,None,1000,16,1762060,328,205.285
J,2,1558045,sinestep5.wav,None,1000,16,1764060,324,207.285
J,2,1558045,vowelstep1.wav,None,1000,16,1766060,327,209.285
J,2,1558045,vowelstep5.wav,None,1000,16,1768060,334,211.285
J,2,1558045,vowelstep3.wav,None,1000,16,1770060,339,213.285
J,2,1558045,vowelstep3.wav,None,1000,16,1772059,343,215.285
J,2,1558045,silence.wav,None,1000,16,1774059,320,217.285
J,2,1558045,sinestep1.wav,None,1000,16,1776059,328,219.285
J,2,1558045,vowelstep3.wav,None,1000,16,1778059,328,221.285
J,2,1558045,sinestep7.wav,None,1000,16,1780060,335,223.285
J,2,1558045,vowelstep7.wav,None,1000,16,1782060,333,225.285
J,2,1558045,silence.wav,None,1000,16,1784060,338,227.285
J,2,1558045,vowelstep5.wav,None,1000,16,1786060,337,229.285
J,2,1558045,silence.wav,None,1000,16,1788060,327,231.285
J,2,1558045,sinestep3.wav,None,1000,16,1790060,325,233.285
J,2,1558045,vowelstep5.wav,None,1000,16,1792060,327,235.285
J,2,1558045,vowelstep3.wav,None,1000,16,1794060,325,237.285
J,2,1558045,vowelstep5.wav,None,1000,16,1796060,338,239.285
J,2,1558045,vowelstep7.wav,None,1000,16,1798060,332,241.285
J,2,1558045,vowelstep1.wav,None,1000,16,1800060,330,243.285
J,2,1558045,sinestep7.wav,None,1000,16,1802060,344,245.285
J,2,1558045,sinestep7.wav,None,1000,16,1804060,323,247.285
J,2,1558045,silence.wav,None,1000,16,1806060,327,249.285
J,2,1558045,vowelstep1.wav,None,1000,16,1808060,335,251.285
J,2,1558045,vowelstep3_catch.wav,None,1000,16,1810060,332,253.285
J,2,1558045,vowelstep1.wav,None,1000,16,1812060,336,255.285
J,2,1558045,vowelstep5_catch.wav,None,1000,16,1814061,336,257.285
J,2,1558045,silence.wav,None,1000,16,1816061,316,259.285
J,2,1558045,sinestep5.wav,None,1000,16,1818061,320,261.285
J,2,1558045,vowelstep1.wav,None,1000,16,1820060,326,263.285
J,2,1558045,sinestep5.wav,None,1000,16,1822060,326,265.285
J,2,1558045,vowelstep3.wav,None,1000,16,1824060,337,267.285
J,2,1558045,sinestep5.wav,None,1000,16,1826060,336,269.285
J,2,1558045,sinestep7.wav,None,1000,16,1828060,336,271.285
J,2,1558045,silence.wav,None,1000,16,1830060,346,273.285
J,2,1558045,vowelstep7_catch.wav,None,1000,16,1832061,325,275.285
J,2,1558045,sinestep3.wav,None,1000,16,1834061,324,277.285
J,2,1558045,vowelstep5.wav,None,1000,16,1836061,324,279.285
J,2,1558045,silence.wav,None,1000,16,1838061,324,281.285
J,2,1558045,silence.wav,None,1000,16,1840061,335,283.285
J,2,1558045,silence.wav,None,1000,16,1842061,334,285.285
J,2,1558045,vowelstep7.wav,None,1000,16,1844060,314,287.285
J,2,1558045,sinestep3.wav,None,1000,16,1846060,319,289.285
J,2,1558045,vowelstep5_catch.wav,None,1000,16,1848060,319,291.285
J,2,1558045,silence.wav,None,1000,16,1850061,322,293.285
J,2,1558045,sinestep7.wav,None,1000,16,1852061,332,295.285
J,2,1558045,vowelstep1.wav,None,1000,16,1854061,328,297.285
J,2,1558045,silence.wav,None,1000,16,1856061,334,299.285
J,2,1558045,sinestep1.wav,None,1000,16,1858061,339,301.285
J,2,1558045,sinestep5.wav,None,1000,16,1860061,323,303.285
J,2,1558045,vowelstep5.wav,None,1000,16,1862061,323,305.285
J,2,1558045,vowelstep3.wav,None,1000,16,1864061,320,307.285
J,2,1558045,sinestep7.wav,None,1000,16,1866062,331,309.285
J,2,1558045,vowelstep7.wav,None,1000,16,1868062,325,311.285
J,2,1558045,vowelstep3_catch.wav,None,1000,16,1870061,333,313.285
J,2,1558045,vowelstep1_catch.wav,None,1000,16,1872061,341,315.285
J,2,1558045,sinestep3.wav,None,1000,16,1874061,313,317.285
J,2,1558045,sinestep1.wav,None,1000,16,1876061,323,319.285
G,3,1935221,vowelstep3.wav,None,1000,16,1935228,0,1.285
G,3,1935221,vowelstep3.wav,None,1000,16,1937229,332,3.285
G,3,1935221,vowelstep7.wav,None,1000,16,1939229,342,5.285
G,3,1935221,vowelstep3.wav,None,1000,16,1941229,345,7.285
G,3,1935221,sinestep5.wav,None,1000,16,1943229,345,9.285
G,3,1935221,sinestep1_catch.wav,1,58,16,1945229,355,11.285
G,3,1935221,silence.wav,None,1000,16,1947229,1274,13.285
G,3,1935221,silence.wav,None,1000,16,1949229,333,15.285
G,3,1935221,vowelstep7.wav,None,1000,16,1951229,334,17.285
G,3,1935221,vowelstep1.wav,None,1000,16,1953229,345,19.285
G,3,1935221,silence.wav,None,1000,16,1955230,339,21.285
G,3,1935221,sinestep1.wav,None,1000,16,1957229,343,23.285
G,3,1935221,vowelstep7.wav,None,1000,16,1959229,349,25.285
G,3,1935221,sinestep5.wav,None,1000,16,1961229,333,27.285
G,3,1935221,sinestep5.wav,None,1000,16,1963229,327,29.285
G,3,1935221,sinestep3.wav,None,1000,16,1965229,333,31.285
G,3,1935221,vowelstep3.wav,None,1000,16,1967229,340,33.285
G,3,1935221,silence.wav,None,1000,16,1969229,341,35.285
G,3,1935221,vowelstep1.wav,None,1000,16,1971230,343,37.285
G,3,1935221,sinestep7.wav,None,1000,16,1973230,345,39.285
G,3,1935221,vowelstep5.wav,None,1000,16,1975230,329,41.285
G,3,1935221,vowelstep3.wav,None,1000,16,1977230,327,43.285
G,3,1935221,sinestep1.wav,None,1000,16,1979230,333,45.285
G,3,1935221,sinestep7.wav,None,1000,16,1981229,330,47.285
G,3,1935221,sinestep1.wav,None,1000,16,1983229,341,49.285
G,3,1935221,sinestep5.wav,None,1000,16,1985229,341,51.285
G,3,1935221,vowelstep1.wav,None,1000,16,1987229,349,53.285
G,3,1935221,silence.wav,None,1000,16,1989230,352,55.285
G,3,1935221,sinestep5.wav,None,1000,16,1991230,327,57.285
G,3,1935221,vowelstep1.wav,None,1000,16,1993230,327,59.285
G,3,1935221,vowelstep3.wav,None,1000,16,1995230,328,61.285
G,3,1935221,sinestep3.wav,None,1000,16,1997230,336,63.285
G,3,1935221,sinestep1.wav,None,1000,16,1999230,341,65.285
G,3,1935221,vowelstep5.wav,None,1000,16,2001230,336,67.285
G,3,1935221,vowelstep3.wav,None,1000,16,2003230,319,69.285
G,3,1935221,vowelstep5.wav,None,1000,16,2005230,327,71.285
G,3,1935221,vowelstep7.wav,None,1000,16,2007230,328,73.285
G,3,1935221,vowelstep5.wav,None,1000,16,2009230,321,75.285
G,3,1935221,vowelstep5.wav,None,1000,16,2011230,340,77.285
G,3,1935221,sinestep3.wav,None,1000,16,2013230,339,79.285
G,3,1935221,sinestep3_catch.wav,None,1000,16,2015230,337,81.285
G,3,1935221,sinestep5_catch.wav,None,1000,16,2017230,341,83.285
G,3,1935221,sinestep7.wav,None,1000,16,2019230,325,85.285
G,3,1935221,sinestep7_catch.wav,None,1000,16,2021230,324,87.285
G,3,1935221,sinestep7.wav,None,1000,16,2023230,324,89.285
G,3,1935221,vowelstep1.wav,None,1000,16,2025231,338,91.285
G,3,1935221,vowelstep7.wav,None,1000,16,2027231,339,93.285
G,3,1935221,vowelstep3.wav,None,1000,16,2029231,335,95.285
G,3,1935221,sinestep3.wav,None,1000,16,2031230,319,97.285
G,3,1935221,sinestep1.wav,None,1000,16,2033230,323,99.285
G,3,1935221,sinestep1.wav,None,1000,16,2035230,326,101.285
G,3,1935221,sinestep5.wav,None,1000,16,2037230,333,103.285
G,3,1935221,vowelstep7.wav,None,1000,16,2039230,339,105.285
G,3,1935221,silence.wav,None,1000,16,2041231,337,107.285
G,3,1935221,sinestep3.wav,None,1000,16,2043231,336,109.285
G,3,1935221,vowelstep1.wav,None,1000,16,2045231,319,111.285
G,3,1935221,sinestep3.wav,None,1000,16,2047231,324,113.285
G,3,1935221,sinestep3.wav,None,1000,16,2049231,322,115.285
G,3,1935221,sinestep7.wav,None,1000,16,2051231,325,117.285
G,3,1935221,silence.wav,None,1000,16,2053231,338,119.285
G,3,1935221,vowelstep5.wav,None,1000,16,2055230,333,121.285
G,3,1935221,sinestep1_catch.wav,None,1000,16,2057230,334,123.285
G,3,1935221,silence.wav,None,1000,16,2059231,344,125.285
G,3,1935221,sinestep5.wav,None,1000,16,2061231,347,127.285
G,3,1935221,sinestep7.wav,None,1000,16,2063231,342,129.285
G,3,1935221,sinestep3.wav,None,1000,16,2065231,356,131.285
G,3,1935221,sinestep3.wav,None,1000,16,2067231,334,133.285
G,3,1935221,vowelstep5.wav,None,1000,16,2069231,336,135.285
G,3,1935221,sinestep3.wav,None,1000,16,2071231,339,137.285
G,3,1935221,sinestep3_catch.wav,None,1000,16,2073231,333,139.285
G,3,1935221,vowelstep1.wav,None,1000,16,2075231,325,141.285
G,3,1935221,vowelstep1.wav,None,1000,16,2077232,323,143.285
G,3,1935221,sinestep5.wav,None,1000,16,2079231,324,145.285
G,3,1935221,silence.wav,None,1000,16,2081231,354,147.285
G,3,1935221,sinestep3.wav,None,1000,16,2083231,336,149.285
G,3,1935221,silence.wav,None,1000,16,2085231,335,151.285
G,3,1935221,vowelstep3.wav,None,1000,16,2087231,336,153.285
G,3,1935221,sinestep5.wav,None,1000,16,2089231,338,155.285
G,3,1935221,vowelstep7.wav,None,1000,16,2091231,345,157.285
G,3,1935221,silence.wav,None,1000,16,2093232,353,159.285
G,3,1935221,sinestep5_catch.wav,None,1000,16,2095232,323,161.285
G,3,1935221,vowelstep5.wav,None,1000,16,2097232,329,163.285
G,3,1935221,silence.wav,None,1000,16,2099232,328,165.285
G,3,1935221,vowelstep7.wav,None,1000,16,2101232,344,167.285
G,3,1935221,vowelstep1.wav,None,1000,16,2103231,343,169.285
G,3,1935221,vowelstep1.wav,None,1000,16,2105231,338,171.285
G,3,1935221,vowelstep1.wav,None,1000,16,2107231,356,173.285
G,3,1935221,sinestep5.wav,None,1000,16,2109231,353,175.285
G,3,1935221,vowelstep3.wav,None,1000,16,2111232,334,177.285
G,3,1935221,sinestep1.wav,None,1000,16,2113232,329,179.285
G,3,1935221,vowelstep1.wav,None,1000,16,2115232,333,181.285
G,3,1935221,sinestep1.wav,None,1000,16,2117232,343,183.285
G,3,1935221,sinestep7.wav,None,1000,16,2119232,345,185.285
G,3,1935221,sinestep7.wav,None,1000,16,2121232,351,187.285
G,3,1935221,sinestep3.wav,None,1000,16,2123232,322,189.285
G,3,1935221,sinestep5.wav,None,1000,16,2125232,328,191.285
G,3,1935221,silence.wav,None,1000,16,2127231,328,193.285
G,3,1935221,sinestep7_catch.wav,None,1000,16,2129232,343,195.285
G,3,1935221,vowelstep7_catch.wav,None,1000,16,2131232,337,197.285
G,3,1935221,sinestep7.wav,None,1000,16,2133232,340,199.285
G,3,1935221,silence.wav,None,1000,16,2135232,343,201.285
G,3,1935221,sinestep7.wav,None,1000,16,2137232,324,203.285
G,3,1935221,sinestep3.wav,None,1000,16,2139232,327,205.285
G,3,1935221,vowelstep7.wav,None,1000,16,2141232,330,207.285
G,3,1935221,sinestep1.wav,None,1000,16,2143232,334,209.285
G,3,1935221,silence.wav,None,1000,16,2145232,339,211.285
G,3,1935221,silence.wav,None,1000,16,2147233,339,213.285
G,3,1935221,vowelstep7.wav,None,1000,16,2149233,341,215.285
G,3,1935221,vowelstep5.wav,None,1000,16,2151233,346,217.285
G,3,1935221,sinestep7.wav,None,1000,16,2153232,332,219.285
G,3,1935221,vowelstep5.wav,None,1000,16,2155232,329,221.285
G,3,1935221,vowelstep5_catch.wav,None,1000,16,2157232,331,223.285
G,3,1935221,vowelstep7.wav,None,1000,16,2159232,341,225.285
G,3,1935221,silence.wav,None,1000,16,2161232,338,227.285
G,3,1935221,silence.wav,None,1000,16,2163233,341,229.285
G,3,1935221,sinestep1.wav,None,1000,16,2165233,318,231.285
G,3,1935221,silence.wav,None,1000,16,2167233,328,233.285
G,3,1935221,vowelstep7.wav,None,1000,16,2169233,329,235.285
G,3,1935221,vowelstep5.wav,None,1000,16,2171233,293,237.285
G,3,1935221,vowelstep3.wav,None,1000,16,2173233,341,239.285
G,3,1935221,vowelstep3_catch.wav,None,1000,16,2175232,339,241.285
G,3,1935221,sinestep1.wav,None,1000,16,2177232,337,243.285
G,3,1935221,silence.wav,None,1000,16,2179232,341,245.285
G,3,1935221,sinestep7.wav,None,1000,16,2181233,271,247.285
G,3,1935221,sinestep1.wav,None,1000,16,2183233,329,249.285
G,3,1935221,sinestep3.wav,None,1000,16,2185233,324,251.285
G,3,1935221,vowelstep3.wav,None,1000,16,2187233,328,253.285
G,3,1935221,vowelstep1_catch.wav,1,64,16,2189233,338,255.285
G,3,1935221,sinestep7.wav,None,1000,16,2191233,1272,257.285
G,3,1935221,silence.wav,None,1000,16,2193233,349,259.285
G,3,1935221,sinestep5.wav,None,1000,16,2195233,328,261.285
G,3,1935221,sinestep5.wav,None,1000,16,2197233,327,263.285
G,3,1935221,vowelstep5.wav,None,1000,16,2199234,328,265.285
G,3,1935221,sinestep5.wav,None,1000,16,2201233,338,267.285
G,3,1935221,sinestep7.wav,None,1000,16,2203233,337,269.285
G,3,1935221,silence.wav,None,1000,16,2205233,338,271.285
G,3,1935221,vowelstep7_catch.wav,1,69,16,2207233,338,273.285
G,3,1935221,vowelstep5.wav,None,1000,16,2209233,1255,275.285
G,3,1935221,silence.wav,None,1000,16,2211233,328,277.285
G,3,1935221,sinestep3.wav,None,1000,16,2213233,317,279.285
G,3,1935221,vowelstep5.wav,None,1000,16,2215233,321,281.285
G,3,1935221,silence.wav,None,1000,16,2217234,335,283.285
G,3,1935221,vowelstep1.wav,None,1000,16,2219234,334,285.285
G,3,1935221,sinestep1.wav,None,1000,16,2221234,339,287.285
G,3,1935221,vowelstep3.wav,None,1000,16,2223234,344,289.285
G,3,1935221,vowelstep7.wav,None,1000,16,2225233,323,291.285
G,3,1935221,vowelstep7.wav,None,1000,16,2227233,323,293.285
G,3,1935221,sinestep1.wav,None,1000,16,2229233,324,295.285
G,3,1935221,vowelstep5.wav,None,1000,16,2231233,335,297.285
G,3,1935221,silence.wav,None,1000,16,2233234,335,299.285
G,3,1935221,sinestep1.wav,None,1000,16,2235234,336,301.285
G,3,1935221,vowelstep7.wav,None,1000,16,2237234,315,303.285
G,3,1935221,vowelstep5_catch.wav,1,177,16,2239234,323,305.285
G,3,1935221,vowelstep3.wav,None,1000,16,2241234,1143,307.285
G,3,1935221,vowelstep3_catch.wav,1,177,16,2243234,324,309.285
G,3,1935221,sinestep7.wav,None,1000,16,2245234,1157,311.285
G,3,1935221,sinestep5.wav,None,1000,16,2247234,334,313.285
G,3,1935221,vowelstep1.wav,None,1000,16,2249233,336,315.285
G,3,1935221,vowelstep3.wav,None,1000,16,2251234,343,317.285
G,3,1935221,vowelstep1.wav,None,1000,16,2253234,323,319.285
C,4,2315782,sinestep1.wav,None,1000,16,2315801,0,1.285
C,4,2315782,vowelstep1.wav,None,1000,16,2317801,328,3.285
C,4,2315782,sinestep1.wav,None,1000,16,2319801,333,5.285
C,4,2315782,sinestep1.wav,None,1000,16,2321802,337,7.285
C,4,2315782,vowelstep1.wav,None,1000,16,2323785,320,9.285
C,4,2315782,sinestep1.wav,None,1000,16,2325785,342,11.285
C,4,2315782,sinestep7.wav,None,1000,16,2327785,351,13.285
C,4,2315782,vowelstep7.wav,None,1000,16,2329785,353,15.285
C,4,2315782,vowelstep3.wav,None,1000,16,2331802,350,17.285
C,4,2315782,vowelstep5.wav,None,1000,16,2333802,336,19.285
C,4,2315782,silence.wav,None,1000,16,2335802,312,21.285
C,4,2315782,sinestep3.wav,None,1000,16,2337801,319,23.285
C,4,2315782,vowelstep5.wav,None,1000,16,2339786,320,25.285
C,4,2315782,sinestep1.wav,None,1000,16,2341786,348,27.285
C,4,2315782,vowelstep1.wav,None,1000,16,2343786,350,29.285
C,4,2315782,vowelstep7.wav,None,1000,16,2345785,360,31.285
C,4,2315782,vowelstep3.wav,None,1000,16,2347785,330,33.285
C,4,2315782,sinestep1.wav,None,1000,16,2349802,342,35.285
C,4,2315782,sinestep5.wav,None,1000,16,2351802,321,37.285
C,4,2315782,silence.wav,None,1000,16,2353802,320,39.285
C,4,2315782,vowelstep7.wav,None,1000,16,2355786,321,41.285
C,4,2315782,vowelstep5.wav,None,1000,16,2357786,346,43.285
C,4,2315782,sinestep5.wav,None,1000,16,2359786,348,45.285
C,4,2315782,silence.wav,None,1000,16,2361786,359,47.285
C,4,2315782,sinestep5.wav,None,1000,16,2363786,339,49.285
C,4,2315782,sinestep1.wav,None,1000,16,2365786,334,51.285
C,4,2315782,silence.wav,None,1000,16,2367802,337,53.285
C,4,2315782,vowelstep1.wav,None,1000,16,2369802,314,55.285
C,4,2315782,vowelstep1.wav,None,1000,16,2371785,328,57.285
C,4,2315782,sinestep1.wav,None,1000,16,2373786,342,59.285
C,4,2315782,silence.wav,None,1000,16,2375786,354,61.285
C,4,2315782,vowelstep5.wav,None,1000,16,2377786,336,63.285
C,4,2315782,vowelstep3.wav,None,1000,16,2379786,337,65.285
C,4,2315782,vowelstep3.wav,None,1000,16,2381786,338,67.285
C,4,2315782,vowelstep7.wav,None,1000,16,2383786,334,69.285
C,4,2315782,silence.wav,None,1000,16,2385786,349,71.285
C,4,2315782,vowelstep3.wav,None,1000,16,2387786,343,73.285
C,4,2315782,silence.wav,None,1000,16,2389786,357,75.285
C,4,2315782,sinestep5.wav,None,1000,16,2391787,328,77.285
C,4,2315782,vowelstep7.wav,None,1000,16,2393786,335,79.285
C,4,2315782,vowelstep1_catch.wav,1,93,16,2395786,331,81.285
C,4,2315782,vowelstep3.wav,None,1000,16,2397786,1247,83.285
C,4,2315782,sinestep7.wav,None,1000,16,2399786,341,85.285
C,4,2315782,vowelstep3.wav,None,1000,16,2401786,343,87.285
C,4,2315782,sinestep1.wav,None,1000,16,2403786,356,89.285
C,4,2315782,sinestep7.wav,None,1000,16,2405786,334,91.285
C,4,2315782,sinestep7.wav,None,1000,16,2407786,334,93.285
C,4,2315782,sinestep3.wav,None,1000,16,2409787,330,95.285
C,4,2315782,vowelstep3_catch.wav,1,246,16,2411787,344,97.285
C,4,2315782,sinestep5.wav,None,1000,16,2413787,1094,99.285
C,4,2315782,sinestep5.wav,None,1000,16,2415787,341,101.285
C,4,2315782,vowelstep3.wav,None,1000,16,2417786,355,103.285
C,4,2315782,vowelstep5.wav,None,1000,16,2419786,328,105.285
C,4,2315782,sinestep1.wav,None,1000,16,2421786,333,107.285
C,4,2315782,sinestep3.wav,None,1000,16,2423786,334,109.285
C,4,2315782,vowelstep5.wav,None,1000,16,2425787,343,111.285
C,4,2315782,vowelstep7.wav,None,1000,16,2427787,344,113.285
C,4,2315782,vowelstep1.wav,None,1000,16,2429787,343,115.285
C,4,2315782,sinestep7.wav,None,1000,16,2431787,354,117.285
C,4,2315782,sinestep3.wav,None,1000,16,2433787,333,119.285
C,4,2315782,vowelstep1.wav,None,1000,16,2435787,333,121.285
C,4,2315782,vowelstep1.wav,None,1000,16,2437787,333,123.285
C,4,2315782,sinestep3.wav,None,1000,16,2439787,332,125.285
C,4,2315782,silence.wav,None,1000,16,2441787,342,127.285
C,4,2315782,silence.wav,None,1000,16,2443787,342,129.285
C,4,2315782,vowelstep5_catch.wav,1,750,16,2445787,337,131.285
C,4,2315782,vowelstep5.wav,None,1000,16,2447787,601,133.285
C,4,2315782,silence.wav,None,1000,16,2449787,331,135.285
C,4,2315782,sinestep1.wav,None,1000,16,2451787,330,137.285
C,4,2315782,vowelstep7.wav,None,1000,16,2453787,328,139.285
C,4,2315782,sinestep7.wav,None,1000,16,2455787,341,141.285
C,4,2315782,silence.wav,None,1000,16,2457787,342,143.285
C,4,2315782,silence.wav,None,1000,16,2459787,345,145.285
C,4,2315782,sinestep7.wav,None,1000,16,2461788,320,147.285
C,4,2315782,vowelstep1.wav,None,1000,16,2463788,329,149.285
C,4,2315782,vowelstep5.wav,None,1000,16,2465788,332,151.285
C,4,2315782,vowelstep5.wav,None,1000,16,2467787,328,153.285
C,4,2315782,vowelstep7.wav,None,1000,16,2469787,343,155.285
C,4,2315782,sinestep7.wav,None,1000,16,2471787,342,157.285
C,4,2315782,vowelstep1.wav,None,1000,16,2473787,342,159.285
C,4,2315782,vowelstep3.wav,None,1000,16,2475787,349,161.285
C,4,2315782,sinestep5.wav,None,1000,16,2477787,332,163.285
C,4,2315782,sinestep7.wav,None,1000,16,2479788,331,165.285
C,4,2315782,sinestep1.wav,None,1000,16,2481788,331,167.285
C,4,2315782,sinestep7.wav,None,1000,16,2483788,341,169.285
C,4,2315782,sinestep3.wav,None,1000,16,2485788,339,171.285
C,4,2315782,silence.wav,None,1000,16,2487788,340,173.285
C,4,2315782,vowelstep7.wav,None,1000,16,2489788,352,175.285
C,4,2315782,sinestep7.wav,None,1000,16,2491787,332,177.285
C,4,2315782,sinestep5.wav,None,1000,16,2493787,323,179.285
C,4,2315782,vowelstep7.wav,None,1000,16,2495788,328,181.285
C,4,2315782,vowelstep5.wav,None,1000,16,2497788,340,183.285
C,4,2315782,vowelstep3.wav,None,1000,16,2499788,340,185.285
C,4,2315782,vowelstep7_catch.wav,1,62,16,2501788,341,187.285
C,4,2315782,vowelstep3.wav,None,1000,16,2503788,1277,189.285
C,4,2315782,vowelstep5.wav,None,1000,16,2505788,327,191.285
C,4,2315782,vowelstep7.wav,None,1000,16,2507788,331,193.285
C,4,2315782,vowelstep7_catch.wav,1,281,16,2509788,331,195.285
C,4,2315782,vowelstep5_catch.wav,1,261,16,2511788,1056,197.285
C,4,2315782,sinestep5.wav,None,1000,16,2513789,1079,199.285
C,4,2315782,sinestep3.wav,None,1000,16,2515788,335,201.285
C,4,2315782,vowelstep3_catch.wav,1,148,16,2517788,343,203.285
C,4,2315782,vowelstep1_catch.wav,1,228,16,2519788,1179,205.285
C,4,2315782,vowelstep5.wav,None,1000,16,2521788,1096,207.285
C,4,2315782,vowelstep1.wav,None,1000,16,2523788,328,209.285
C,4,2315782,sinestep1_catch.wav,1,396,16,2525788,335,211.285
C,4,2315782,sinestep3_catch.wav,1,207,16,2527788,942,213.285
C,4,2315782,sinestep1.wav,None,1000,16,2529788,1132,215.285
C,4,2315782,vowelstep3.wav,None,1000,16,2531789,319,217.285
C,4,2315782,sinestep3.wav,None,1000,16,2533789,317,219.285
C,4,2315782,vowelstep5.wav,None,1000,16,2535789,329,221.285
C,4,2315782,sinestep7.wav,None,1000,16,2537789,329,223.285
C,4,2315782,sinestep1.wav,None,1000,16,2539788,338,225.285
C,4,2315782,sinestep5_catch.wav,1,173,16,2541788,337,227.285
C,4,2315782,vowelstep7.wav,None,1000,16,2543788,1160,229.285
C,4,2315782,vowelstep3.wav,None,1000,16,2545788,339,231.285
C,4,2315782,silence.wav,None,1000,16,2547789,346,233.285
C,4,2315782,vowelstep1.wav,None,1000,16,2549789,349,235.285
C,4,2315782,sinestep5.wav,None,1000,16,2551789,357,237.285
C,4,2315782,sinestep1.wav,None,1000,16,2553789,326,239.285
C,4,2315782,vowelstep7.wav,None,1000,16,2555789,335,241.285
C,4,2315782,sinestep3.wav,None,1000,16,2557789,337,243.285
C,4,2315782,sinestep3.wav,None,1000,16,2559789,336,245.285
C,4,2315782,sinestep5.wav,None,1000,16,2561789,346,247.285
C,4,2315782,vowelstep3.wav,None,1000,16,2563788,328,249.285
C,4,2315782,sinestep3.wav,None,1000,16,2565789,345,251.285
C,4,2315782,silence.wav,None,1000,16,2567789,356,253.285
C,4,2315782,sinestep3.wav,None,1000,16,2569789,335,255.285
C,4,2315782,vowelstep1.wav,None,1000,16,2571789,337,257.285
C,4,2315782,silence.wav,None,1000,16,2573789,336,259.285
C,4,2315782,vowelstep1.wav,None,1000,16,2575789,346,261.285
C,4,2315782,silence.wav,None,1000,16,2577789,346,263.285
C,4,2315782,sinestep7.wav,None,1000,16,2579789,353,265.285
C,4,2315782,sinestep3.wav,None,1000,16,2581789,357,267.285
C,4,2315782,vowelstep1.wav,None,1000,16,2583790,338,269.285
C,4,2315782,sinestep7.wav,None,1000,16,2585790,335,271.285
C,4,2315782,sinestep7_catch.wav,1,184,16,2587789,345,273.285
C,4,2315782,vowelstep5.wav,None,1000,16,2589789,1156,275.285
C,4,2315782,silence.wav,None,1000,16,2591789,347,277.285
C,4,2315782,silence.wav,None,1000,16,2593789,340,279.285
C,4,2315782,sinestep3.wav,None,1000,16,2595789,325,281.285
C,4,2315782,vowelstep7.wav,None,1000,16,2597789,333,283.285
C,4,2315782,sinestep5.wav,None,1000,16,2599789,336,285.285
C,4,2315782,sinestep5.wav,None,1000,16,2601790,334,287.285
C,4,2315782,vowelstep3.wav,None,1000,16,2603790,344,289.285
C,4,2315782,sinestep3.wav,None,1000,16,2605790,341,291.285
C,4,2315782,silence.wav,None,1000,16,2607790,342,293.285
C,4,2315782,silence.wav,None,1000,16,2609790,354,295.285
C,4,2315782,vowelstep7.wav,None,1000,16,2611789,331,297.285
C,4,2315782,silence.wav,None,1000,16,2613789,334,299.285
C,4,2315782,vowelstep5.wav,None,1000,16,2615789,333,301.285
C,4,2315782,sinestep5.wav,None,1000,16,2617790,344,303.285
C,4,2315782,silence.wav,None,1000,16,2619790,343,305.285
C,4,2315782,silence.wav,None,1000,16,2621790,340,307.285
C,4,2315782,silence.wav,None,1000,16,2623790,322,309.285
C,4,2315782,sinestep7_catch.wav,1,272,16,2625790,333,311.285
C,4,2315782,sinestep7.wav,None,1000,16,2627790,1060,313.285
C,4,2315782,sinestep5_catch.wav,1,212,16,2629790,333,315.285
C,4,2315782,sinestep5.wav,None,1000,16,2631790,1127,317.285
C,4,2315782,sinestep3_catch.wav,1,203,16,2633790,345,319.285
I,5,2693581,vowelstep7.wav,None,1000,16,2693591,0,1.285
I,5,2693581,sinestep1_catch.wav,1,167,16,2695591,326,3.285
I,5,2693581,sinestep3.wav,None,1000,16,2697591,1171,5.285
I,5,2693581,silence.wav,None,1000,16,2699591,336,7.285
I,5,2693581,vowelstep7.wav,None,1000,16,2701591,338,9.285
I,5,2693581,sinestep3_catch.wav,1,174,16,2703591,340,11.285
I,5,2693581,vowelstep3.wav,None,1000,16,2705592,1153,13.285
I,5,2693581,vowelstep3.wav,None,1000,16,2707592,328,15.285
I,5,2693581,silence.wav,None,1000,16,2709591,326,17.285
I,5,2693581,vowelstep1.wav,None,1000,16,2711591,339,19.285
I,5,2693581,vowelstep5.wav,None,1000,16,2713591,339,21.285
I,5,2693581,vowelstep7.wav,None,1000,16,2715591,333,23.285
I,5,2693581,sinestep1.wav,None,1000,16,2717591,341,25.285
I,5,2693581,vowelstep1.wav,None,1000,16,2719591,324,27.285
I,5,2693581,sinestep5_catch.wav,1,243,16,2721591,328,29.285
I,5,2693581,sinestep5.wav,None,1000,16,2723592,1082,31.285
I,5,2693581,vowelstep1.wav,None,1000,16,2725592,335,33.285
I,5,2693581,sinestep7.wav,None,1000,16,2727592,331,35.285
I,5,2693581,vowelstep3.wav,None,1000,16,2729592,335,37.285
I,5,2693581,vowelstep1.wav,None,1000,16,2731592,340,39.285
I,5,2693581,vowelstep1.wav,None,1000,16,2733591,327,41.285
I,5,2693581,sinestep3.wav,None,1000,16,2735591,324,43.285
I,5,2693581,sinestep5.wav,None,1000,16,2737591,326,45.285
I,5,2693581,sinestep5.wav,None,1000,16,2739591,328,47.285
I,5,2693581,vowelstep3.wav,None,1000,16,2741592,335,49.285
I,5,2693581,silence.wav,None,1000,16,2743592,336,51.285
I,5,2693581,sinestep7_catch.wav,1,274,16,2745592,335,53.285
I,5,2693581,silence.wav,None,1000,16,2747592,1071,55.285
I,5,2693581,sinestep1.wav,None,1000,16,2749592,325,57.285
I,5,2693581,vowelstep1.wav,None,1000,16,2751592,325,59.285
I,5,2693581,sinestep1.wav,None,1000,16,2753592,324,61.285
I,5,2693581,sinestep1.wav,None,1000,16,2755592,334,63.285
I,5,2693581,vowelstep7.wav,None,1000,16,2757592,335,65.285
I,5,2693581,sinestep5.wav,None,1000,16,2759592,339,67.285
I,5,2693581,sinestep5_catch.wav,1,190,16,2761592,314,69.285
I,5,2693581,vowelstep7.wav,None,1000,16,2763592,1129,71.285
I,5,2693581,vowelstep5.wav,None,1000,16,2765592,323,73.285
I,5,2693581,sinestep3.wav,None,1000,16,2767592,332,75.285
I,5,2693581,vowelstep1.wav,None,1000,16,2769592,329,77.285
I,5,2693581,sinestep3.wav,None,1000,16,2771592,333,79.285
I,5,2693581,sinestep5.wav,None,1000,16,2773592,333,81.285
I,5,2693581,sinestep5.wav,None,1000,16,2775593,336,83.285
I,5,2693581,vowelstep5.wav,None,1000,16,2777593,323,85.285
I,5,2693581,vowelstep7.wav,None,1000,16,2779593,322,87.285
I,5,2693581,sinestep3.wav,None,1000,16,2781592,322,89.285
I,5,2693581,vowelstep3.wav,None,1000,16,2783592,331,91.285
I,5,2693581,sinestep3.wav,None,1000,16,2785592,328,93.285
I,5,2693581,vowelstep5.wav,None,1000,16,2787592,341,95.285
I,5,2693581,sinestep7.wav,None,1000,16,2789592,341,97.285
I,5,2693581,sinestep3_catch.wav,1,73,16,2791592,339,99.285
I,5,2693581,sinestep1_catch.wav,1,224,16,2793593,1268,101.285
I,5,2693581,vowelstep3.wav,None,1000,16,2795593,1101,103.285
I,5,2693581,vowelstep3.wav,None,1000,16,2797593,331,105.285
I,5,2693581,vowelstep5.wav,None,1000,16,2799593,331,107.285
I,5,2693581,sinestep5.wav,None,1000,16,2801593,332,109.285
I,5,2693581,vowelstep5.wav,None,1000,16,2803593,343,111.285
I,5,2693581,vowelstep5.wav,None,1000,16,2805593,342,113.285
I,5,2693581,vowelstep1.wav,None,1000,16,2807592,340,115.285
I,5,2693581,vowelstep1_catch.wav,1,387,16,2809592,352,117.285
I,5,2693581,sinestep7.wav,None,1000,16,2811593,937,119.285
I,5,2693581,vowelstep3.wav,None,1000,16,2813593,330,121.285
I,5,2693581,sinestep7.wav,None,1000,16,2815593,331,123.285
I,5,2693581,sinestep7.wav,None,1000,16,2817593,340,125.285
I,5,2693581,vowelstep7.wav,None,1000,16,2819593,338,127.285
I,5,2693581,vowelstep3.wav,None,1000,16,2821593,340,129.285
I,5,2693581,sinestep5.wav,None,1000,16,2823593,346,131.285
I,5,2693581,sinestep5.wav,None,1000,16,2825593,329,133.285
I,5,2693581,vowelstep3.wav,None,1000,16,2827594,330,135.285
I,5,2693581,sinestep5.wav,None,1000,16,2829594,323,137.285
I,5,2693581,sinestep1.wav,None,1000,16,2831593,336,139.285
I,5,2693581,vowelstep7.wav,None,1000,16,2833593,337,141.285
I,5,2693581,silence.wav,None,1000,16,2835593,337,143.285
I,5,2693581,vowelstep7.wav,None,1000,16,2837593,334,145.285
I,5,2693581,silence.wav,None,1000,16,2839593,326,147.285
I,5,2693581,sinestep1.wav,None,1000,16,2841593,329,149.285
I,5,2693581,vowelstep1.wav,None,1000,16,2843593,329,151.285
I,5,2693581,vowelstep3.wav,None,1000,16,2845594,330,153.285
I,5,2693581,silence.wav,None,1000,16,2847594,334,155.285
I,5,2693581,silence.wav,None,1000,16,2849594,338,157.285
I,5,2693581,vowelstep1.wav,None,1000,16,2851594,319,159.285
I,5,2693581,sinestep1.wav,None,1000,16,2853594,312,161.285
I,5,2693581,vowelstep3_catch.wav,1,373,16,2855593,327,163.285
I,5,2693581,sinestep1.wav,None,1000,16,2857593,951,165.285
I,5,2693581,vowelstep5.wav,None,1000,16,2859593,337,167.285
I,5,2693581,vowelstep5_catch.wav,1,356,16,2861593,337,169.285
I,5,2693581,sinestep1.wav,None,1000,16,2863594,974,171.285
I,5,2693581,silence.wav,None,1000,16,2865594,336,173.285
I,5,2693581,vowelstep5.wav,None,1000,16,2867594,325,175.285
I,5,2693581,sinestep3.wav,None,1000,16,2869594,326,177.285
I,5,2693581,sinestep3.wav,None,1000,16,2871594,320,179.285
I,5,2693581,silence.wav,None,1000,16,2873594,327,181.285
I,5,2693581,silence.wav,None,1000,16,2875594,333,183.285
I,5,2693581,vowelstep3.wav,None,1000,16,2877594,337,185.285
I,5,2693581,vowelstep7.wav,None,1000,16,2879593,335,187.285
I,5,2693581,vowelstep7.wav,None,1000,16,2881594,346,189.285
I,5,2693581,silence.wav,None,1000,16,2883594,327,191.285
I,5,2693581,sinestep3.wav,None,1000,16,2885594,323,193.285
I,5,2693581,sinestep3.wav,None,1000,16,2887594,321,195.285
I,5,2693581,vowelstep5.wav,None,1000,16,2889594,336,197.285
I,5,2693581,vowelstep1.wav,None,1000,16,2891594,332,199.285
I,5,2693581,vowelstep1.wav,None,1000,16,2893594,336,201.285
I,5,2693581,sinestep5.wav,None,1000,16,2895594,315,203.285
I,5,2693581,silence.wav,None,1000,16,2897595,326,205.285
I,5,2693581,sinestep5.wav,None,1000,16,2899595,325,207.285
I,5,2693581,sinestep7.wav,None,1000,16,2901595,325,209.285
I,5,2693581,sinestep1.wav,None,1000,16,2903595,332,211.285
I,5,2693581,sinestep5.wav,None,1000,16,2905594,333,213.285
I,5,2693581,vowelstep5.wav,None,1000,16,2907594,334,215.285
I,5,2693581,sinestep7.wav,None,1000,16,2909594,311,217.285
I,5,2693581,sinestep5.wav,None,1000,16,2911594,326,219.285
I,5,2693581,sinestep3.wav,None,1000,16,2913594,324,221.285
I,5,2693581,silence.wav,None,1000,16,2915595,325,223.285
I,5,2693581,vowelstep7_catch.wav,1,221,16,2917595,333,225.285
I,5,2693581,sinestep7.wav,None,1000,16,2919595,1107,227.285
I,5,2693581,sinestep7.wav,None,1000,16,2921595,331,229.285
I,5,2693581,sinestep3.wav,None,1000,16,2923595,338,231.285
I,5,2693581,vowelstep3.wav,None,1000,16,2925595,323,233.285
I,5,2693581,silence.wav,None,1000,16,2927594,318,235.285
I,5,2693581,sinestep3.wav,None,1000,16,2929594,321,237.285
I,5,2693581,sinestep5.wav,None,1000,16,2931594,332,239.285
I,5,2693581,silence.wav,None,1000,16,2933595,329,241.285
I,5,2693581,vowelstep3.wav,None,1000,16,2935595,331,243.285
I,5,2693581,sinestep1.wav,None,1000,16,2937595,341,245.285
I,5,2693581,sinestep1.wav,None,1000,16,2939595,322,247.285
I,5,2693581,sinestep7.wav,None,1000,16,2941595,323,249.285
I,5,2693581,vowelstep7.wav,None,1000,16,2943595,321,251.285
I,5,2693581,vowelstep5.wav,None,1000,16,2945595,333,253.285
I,5,2693581,silence.wav,None,1000,16,2947595,333,255.285
I,5,2693581,sinestep3.wav,None,1000,16,2949595,328,257.285
I,5,2693581,vowelstep1.wav,None,1000,16,2951595,342,259.285
I,5,2693581,vowelstep1.wav,None,1000,16,2953595,308,261.285
I,5,2693581,silence.wav,None,1000,16,2955595,319,263.285
I,5,2693581,vowelstep3.wav,None,1000,16,2957595,321,265.285
I,5,2693581,silence.wav,None,1000,16,2959595,332,267.285
I,5,2693581,silence.wav,None,1000,16,2961595,331,269.285
I,5,2693581,sinestep7.wav,None,1000,16,2963595,331,271.285
I,5,2693581,sinestep7.wav,None,1000,16,2965595,341,273.285
I,5,2693581,vowelstep5.wav,None,1000,16,2967596,317,275.285
I,5,2693581,silence.wav,None,1000,16,2969596,318,277.285
I,5,2693581,silence.wav,None,1000,16,2971596,321,279.285
I,5,2693581,sinestep1.wav,None,1000,16,2973596,331,281.285
I,5,2693581,silence.wav,None,1000,16,2975595,330,283.285
I,5,2693581,vowelstep7.wav,None,1000,16,2977595,330,285.285
I,5,2693581,vowelstep5_catch.wav,1,210,16,2979595,340,287.285
I,5,2693581,sinestep7.wav,None,1000,16,2981595,1100,289.285
I,5,2693581,sinestep1.wav,None,1000,16,2983595,317,291.285
I,5,2693581,vowelstep3_catch.wav,1,357,16,2985596,319,293.285
I,5,2693581,sinestep1.wav,None,1000,16,2987596,970,295.285
I,5,2693581,vowelstep7.wav,None,1000,16,2989596,328,297.285
I,5,2693581,sinestep3.wav,None,1000,16,2991596,328,299.285
I,5,2693581,vowelstep5.wav,None,1000,16,2993596,327,301.285
I,5,2693581,vowelstep1_catch.wav,1,87,16,2995596,304,303.285
I,5,2693581,vowelstep7.wav,None,1000,16,2997596,1228,305.285
I,5,2693581,vowelstep5.wav,None,1000,16,2999596,310,307.285
I,5,2693581,sinestep1_catch.wav,1,654,16,3001595,326,309.285
I,5,2693581,silence.wav,None,1000,16,3003596,672,311.285
I,5,2693581,sinestep7.wav,None,1000,16,3005596,326,313.285
I,5,2693581,silence.wav,None,1000,16,3007596,328,315.285
I,5,2693581,vowelstep1.wav,None,1000,16,3009596,317,317.285
I,5,2693581,sinestep7.wav,None,1000,16,3011596,317,319.285
D,6,3070122,sinestep5.wav,None,1000,16,3070130,0,1.285
D,6,3070122,vowelstep1_catch.wav,1,167,16,3072130,322,3.285
D,6,3070122,sinestep7.wav,None,1000,16,3074131,1153,5.285
D,6,3070122,vowelstep3.wav,None,1000,16,3076131,332,7.285
D,6,3070122,vowelstep3_catch.wav,1,282,16,3078131,335,9.285
D,6,3070122,vowelstep5_catch.wav,1,258,16,3080131,1052,11.285
D,6,3070122,sinestep7.wav,None,1000,16,3082130,1074,13.285
D,6,3070122,silence.wav,None,1000,16,3084130,324,15.285
D,6,3070122,vowelstep7_catch.wav,1,304,16,3086130,325,17.285
D,6,3070122,vowelstep7.wav,None,1000,16,3088130,1014,19.285
D,6,3070122,vowelstep3.wav,None,1000,16,3090131,325,21.285
D,6,3070122,vowelstep7_catch.wav,1,383,16,3092131,329,23.285
D,6,3070122,vowelstep5.wav,None,1000,16,3094131,949,25.285
D,6,3070122,sinestep7.wav,None,1000,16,3096131,333,27.285
D,6,3070122,silence.wav,None,1000,16,3098131,344,29.285
D,6,3070122,vowelstep1.wav,None,1000,16,3100131,324,31.285
D,6,3070122,vowelstep1.wav,None,1000,16,3102131,323,33.285
D,6,3070122,vowelstep7.wav,None,1000,16,3104131,329,35.285
D,6,3070122,vowelstep3.wav,None,1000,16,3106130,333,37.285
D,6,3070122,sinestep3.wav,None,1000,16,3108131,333,39.285
D,6,3070122,sinestep1.wav,None,1000,16,3110131,332,41.285
D,6,3070122,vowelstep1.wav,None,1000,16,3112131,343,43.285
D,6,3070122,vowelstep1.wav,None,1000,16,3114131,343,45.285
D,6,3070122,sinestep7.wav,None,1000,16,3116131,343,47.285
D,6,3070122,sinestep3.wav,None,1000,16,3118131,321,49.285
D,6,3070122,vowelstep5_catch.wav,1,247,16,3120131,334,51.285
D,6,3070122,sinestep7.wav,None,1000,16,3122131,1086,53.285
D,6,3070122,vowelstep5.wav,None,1000,16,3124131,331,55.285
D,6,3070122,sinestep3.wav,None,1000,16,3126132,343,57.285
D,6,3070122,sinestep7.wav,None,1000,16,3128132,322,59.285
D,6,3070122,vowelstep3.wav,None,1000,16,3130131,323,61.285
D,6,3070122,vowelstep3.wav,None,1000,16,3132131,352,63.285
D,6,3070122,vowelstep3_catch.wav,1,361,16,3134131,320,65.285
D,6,3070122,silence.wav,None,1000,16,3136131,971,67.285
D,6,3070122,vowelstep7.wav,None,1000,16,3138131,332,69.285
D,6,3070122,silence.wav,None,1000,16,3140131,340,71.285
D,6,3070122,sinestep1.wav,None,1000,16,3142131,342,73.285
D,6,3070122,vowelstep5.wav,None,1000,16,3144132,341,75.285
D,6,3070122,vowelstep1.wav,None,1000,16,3146132,350,77.285
D,6,3070122,sinestep7.wav,None,1000,16,3148132,330,79.285
D,6,3070122,vowelstep1.wav,None,1000,16,3150132,328,81.285
D,6,3070122,sinestep7.wav,None,1000,16,3152132,331,83.285
D,6,3070122,vowelstep7.wav,None,1000,16,3154131,328,85.285
D,6,3070122,vowelstep5.wav,None,1000,16,3156131,342,87.285
D,6,3070122,vowelstep1.wav,None,1000,16,3158131,337,89.285
D,6,3070122,sinestep5.wav,None,1000,16,3160132,346,91.285
D,6,3070122,sinestep5.wav,None,1000,16,3162132,320,93.285
D,6,3070122,vowelstep3.wav,None,1000,16,3164132,330,95.285
D,6,3070122,silence.wav,None,1000,16,3166132,326,97.285
D,6,3070122,sinestep1.wav,None,1000,16,3168132,340,99.285
D,6,3070122,sinestep1.wav,None,1000,16,3170132,341,101.285
D,6,3070122,sinestep3.wav,None,1000,16,3172132,340,103.285
D,6,3070122,vowelstep1.wav,None,1000,16,3174132,351,105.285
D,6,3070122,sinestep7.wav,None,1000,16,3176132,327,107.285
D,6,3070122,vowelstep3.wav,None,1000,16,3178132,330,109.285
D,6,3070122,silence.wav,None,1000,16,3180132,327,111.285
D,6,3070122,vowelstep5.wav,None,1000,16,3182132,336,113.285
D,6,3070122,vowelstep1.wav,None,1000,16,3184132,338,115.285
D,6,3070122,vowelstep1_catch.wav,1,361,16,3186132,338,117.285
D,6,3070122,vowelstep7.wav,None,1000,16,3188132,984,119.285
D,6,3070122,sinestep5.wav,None,1000,16,3190132,340,121.285
D,6,3070122,vowelstep7.wav,None,1000,16,3192132,326,123.285
D,6,3070122,sinestep1.wav,None,1000,16,3194132,327,125.285
D,6,3070122,sinestep1.wav,None,1000,16,3196133,328,127.285
D,6,3070122,vowelstep3.wav,None,1000,16,3198133,337,129.285
D,6,3070122,sinestep1.wav,None,1000,16,3200133,328,131.285
D,6,3070122,silence.wav,None,1000,16,3202132,336,133.285
D,6,3070122,sinestep3.wav,None,1000,16,3204132,315,135.285
D,6,3070122,silence.wav,None,1000,16,3206132,327,137.285
D,6,3070122,vowelstep3.wav,None,1000,16,3208132,327,139.285
D,6,3070122,vowelstep5.wav,None,1000,16,3210132,337,141.285
D,6,3070122,silence.wav,None,1000,16,3212132,337,143.285
D,6,3070122,sinestep5.wav,None,1000,16,3214133,336,145.285
D,6,3070122,sinestep5.wav,None,1000,16,3216133,331,147.285
D,6,3070122,sinestep1.wav,None,1000,16,3218133,326,149.285
D,6,3070122,vowelstep5.wav,None,1000,16,3220133,327,151.285
D,6,3070122,vowelstep5.wav,None,1000,16,3222133,327,153.285
D,6,3070122,sinestep1_catch.wav,1,251,16,3224133,327,155.285
D,6,3070122,sinestep5.wav,None,1000,16,3226132,1086,157.285
D,6,3070122,vowelstep3.wav,None,1000,16,3228132,339,159.285
D,6,3070122,vowelstep7.wav,None,1000,16,3230133,335,161.285
D,6,3070122,vowelstep3.wav,None,1000,16,3232133,318,163.285
D,6,3070122,sinestep3.wav,None,1000,16,3234133,325,165.285
D,6,3070122,sinestep1.wav,None,1000,16,3236133,323,167.285
D,6,3070122,silence.wav,None,1000,16,3238133,336,169.285
D,6,3070122,sinestep1.wav,None,1000,16,3240133,332,171.285
D,6,3070122,vowelstep1.wav,None,1000,16,3242133,335,173.285
D,6,3070122,vowelstep3.wav,None,1000,16,3244133,334,175.285
D,6,3070122,silence.wav,None,1000,16,3246133,326,177.285
D,6,3070122,sinestep7.wav,None,1000,16,3248134,322,179.285
D,6,3070122,silence.wav,None,1000,16,3250134,324,181.285
D,6,3070122,vowelstep7.wav,None,1000,16,3252133,322,183.285
D,6,3070122,sinestep3.wav,None,1000,16,3254133,336,185.285
D,6,3070122,vowelstep1.wav,None,1000,16,3256133,335,187.285
D,6,3070122,sinestep7.wav,None,1000,16,3258133,337,189.285
D,6,3070122,silence.wav,None,1000,16,3260133,344,191.285
D,6,3070122,sinestep1.wav,None,1000,16,3262133,324,193.285
D,6,3070122,sinestep3.wav,None,1000,16,3264133,319,195.285
D,6,3070122,sinestep5.wav,None,1000,16,3266134,326,197.285
D,6,3070122,vowelstep3.wav,None,1000,16,3268134,334,199.285
D,6,3070122,sinestep5.wav,None,1000,16,3270134,334,201.285
D,6,3070122,sinestep5.wav,None,1000,16,3272134,331,203.285
D,6,3070122,sinestep3.wav,None,1000,16,3274134,339,205.285
D,6,3070122,sinestep3.wav,None,1000,16,3276133,322,207.285
D,6,3070122,sinestep5.wav,None,1000,16,3278133,323,209.285
D,6,3070122,sinestep3_catch.wav,1,241,16,3280133,318,211.285
D,6,3070122,vowelstep7.wav,None,1000,16,3282134,1088,213.285
D,6,3070122,sinestep1.wav,None,1000,16,3284134,326,215.285
D,6,3070122,sinestep7.wav,None,1000,16,3286134,331,217.285
D,6,3070122,vowelstep1.wav,None,1000,16,3288134,324,219.285
D,6,3070122,sinestep5.wav,None,1000,16,3290134,317,221.285
D,6,3070122,silence.wav,None,1000,16,3292134,320,223.285
D,6,3070122,sinestep5_catch.wav,1,523,16,3294134,322,225.285
D,6,3070122,sinestep5.wav,None,1000,16,3296134,807,227.285
D,6,3070122,silence.wav,None,1000,16,3298134,333,229.285
D,6,3070122,vowelstep7.wav,None,1000,16,3300134,332,231.285
D,6,3070122,sinestep3.wav,None,1000,16,3302134,338,233.285
D,6,3070122,vowelstep5.wav,None,1000,16,3304134,310,235.285
D,6,3070122,vowelstep7.wav,None,1000,16,3306134,320,237.285
D,6,3070122,vowelstep5.wav,None,1000,16,3308134,320,239.285
D,6,3070122,silence.wav,None,1000,16,3310134,329,241.285
D,6,3070122,silence.wav,None,1000,16,3312134,327,243.285
D,6,3070122,silence.wav,None,1000,16,3314134,327,245.285
D,6,3070122,sinestep7.wav,None,1000,16,3316134,329,247.285
D,6,3070122,sinestep5.wav,None,1000,16,3318135,320,249.285
D,6,3070122,sinestep7_catch.wav,1,114,16,3320135,318,251.285
D,6,3070122,vowelstep1.wav,None,1000,16,3322135,1204,253.285
D,6,3070122,vowelstep1.wav,None,1000,16,3324134,320,255.285
D,6,3070122,vowelstep3.wav,None,1000,16,3326134,329,257.285
D,6,3070122,silence.wav,None,1000,16,3328134,326,259.285
D,6,3070122,sinestep5.wav,None,1000,16,3330134,328,261.285
D,6,3070122,vowelstep7.wav,None,1000,16,3332134,339,263.285
D,6,3070122,vowelstep3.wav,None,1000,16,3334134,320,265.285
D,6,3070122,vowelstep7.wav,None,1000,16,3336135,318,267.285
D,6,3070122,vowelstep5.wav,None,1000,16,3338135,329,269.285
D,6,3070122,sinestep1.wav,None,1000,16,3340135,326,271.285
D,6,3070122,sinestep7.wav,None,1000,16,3342135,329,273.285
D,6,3070122,sinestep3.wav,None,1000,16,3344135,325,275.285
D,6,3070122,silence.wav,None,1000,16,3346135,304,277.285
D,6,3070122,sinestep7.wav,None,1000,16,3348134,318,279.285
D,6,3070122,vowelstep5.wav,None,1000,16,3350134,339,281.285
D,6,3070122,sinestep1.wav,None,1000,16,3352135,347,283.285
D,6,3070122,vowelstep1.wav,None,1000,16,3354135,328,285.285
D,6,3070122,sinestep1.wav,None,1000,16,3356135,323,287.285
D,6,3070122,vowelstep5.wav,None,1000,16,3358135,328,289.285
D,6,3070122,silence.wav,None,1000,16,3360135,337,291.285
D,6,3070122,sinestep3.wav,None,1000,16,3362135,334,293.285
D,6,3070122,vowelstep5.wav,None,1000,16,3364135,314,295.285
D,6,3070122,silence.wav,None,1000,16,3366135,317,297.285
D,6,3070122,sinestep3.wav,None,1000,16,3368135,319,299.285
D,6,3070122,vowelstep7.wav,None,1000,16,3370136,329,301.285
D,6,3070122,sinestep7_catch.wav,1,283,16,3372135,324,303.285
D,6,3070122,sinestep5_catch.wav,1,278,16,3374135,1053,305.285
D,6,3070122,sinestep3.wav,None,1000,16,3376135,1054,307.285
D,6,3070122,vowelstep5.wav,None,1000,16,3378135,337,309.285
D,6,3070122,silence.wav,None,1000,16,3380135,346,311.285
D,6,3070122,sinestep3_catch.wav,1,334,16,3382135,327,313.285
D,6,3070122,silence.wav,None,1000,16,3384135,986,315.285
D,6,3070122,vowelstep7.wav,None,1000,16,3386135,325,317.285
D,6,3070122,silence.wav,None,1000,16,3388136,332,319.285
B,7,3446309,vowelstep5.wav,None,1000,16,3446320,0,1.285
B,7,3446309,silence.wav,None,1000,16,3448320,322,3.285
B,7,3446309,sinestep7.wav,None,1000,16,3450320,336,5.285
B,7,3446309,vowelstep1_catch.wav,1,162,16,3452319,335,7.285
B,7,3446309,vowelstep7.wav,None,1000,16,3454319,1179,9.285
B,7,3446309,vowelstep3.wav,None,1000,16,3456319,315,11.285
B,7,3446309,vowelstep7.wav,None,1000,16,3458320,327,13.285
B,7,3446309,vowelstep5.wav,None,1000,16,3460320,326,15.285
B,7,3446309,vowelstep7.wav,None,1000,16,3462320,334,17.285
B,7,3446309,vowelstep3.wav,None,1000,16,3464320,338,19.285
B,7,3446309,silence.wav,None,1000,16,3466320,337,21.285
B,7,3446309,silence.wav,None,1000,16,3468320,335,23.285
B,7,3446309,sinestep5.wav,None,1000,16,3470320,347,25.285
B,7,3446309,sinestep1.wav,None,1000,16,3472320,328,27.285
B,7,3446309,vowelstep7.wav,None,1000,16,3474320,328,29.285
B,7,3446309,sinestep5.wav,None,1000,16,3476321,327,31.285
B,7,3446309,vowelstep1.wav,None,1000,16,3478320,338,33.285
B,7,3446309,vowelstep7.wav,None,1000,16,3480320,331,35.285
B,7,3446309,vowelstep3.wav,None,1000,16,3482320,346,37.285
B,7,3446309,sinestep5.wav,None,1000,16,3484320,318,39.285
B,7,3446309,vowelstep1.wav,None,1000,16,3486320,326,41.285
B,7,3446309,sinestep3.wav,None,1000,16,3488320,328,43.285
B,7,3446309,vowelstep5.wav,None,1000,16,3490320,335,45.285
B,7,3446309,vowelstep7.wav,None,1000,16,3492321,335,47.285
B,7,3446309,vowelstep3.wav,None,1000,16,3494321,336,49.285
B,7,3446309,sinestep7.wav,None,1000,16,3496321,332,51.285
B,7,3446309,sinestep3.wav,None,1000,16,3498321,324,53.285
B,7,3446309,sinestep1.wav,None,1000,16,3500321,319,55.285
B,7,3446309,sinestep1.wav,None,1000,16,3502320,327,57.285
B,7,3446309,sinestep5.wav,None,1000,16,3504320,319,59.285
B,7,3446309,vowelstep5.wav,None,1000,16,3506320,335,61.285
B,7,3446309,vowelstep3_catch.wav,1,350,16,3508320,336,63.285
B,7,3446309,vowelstep7.wav,None,1000,16,3510321,986,65.285
B,7,3446309,sinestep1.wav,None,1000,16,3512321,339,67.285
B,7,3446309,vowelstep5.wav,None,1000,16,3514321,324,69.285
B,7,3446309,vowelstep5_catch.wav,1,383,16,3516321,323,71.285
B,7,3446309,vowelstep7.wav,None,1000,16,3518321,938,73.285
B,7,3446309,sinestep3.wav,None,1000,16,3520321,332,75.285
B,7,3446309,vowelstep7_catch.wav,1,231,16,3522321,330,77.285
B,7,3446309,sinestep5.wav,None,1000,16,3524321,1102,79.285
B,7,3446309,vowelstep5.wav,None,1000,16,3526320,309,81.285
B,7,3446309,silence.wav,None,1000,16,3528321,320,83.285
B,7,3446309,silence.wav,None,1000,16,3530321,323,85.285
B,7,3446309,vowelstep3.wav,None,1000,16,3532321,320,87.285
B,7,3446309,silence.wav,None,1000,16,3534321,333,89.285
B,7,3446309,sinestep1.wav,None,1000,16,3536321,328,91.285
B,7,3446309,sinestep1.wav,None,1000,16,3538321,334,93.285
B,7,3446309,sinestep5.wav,None,1000,16,3540321,342,95.285
B,7,3446309,vowelstep7.wav,None,1000,16,3542321,324,97.285
B,7,3446309,sinestep5.wav,None,1000,16,3544322,321,99.285
B,7,3446309,sinestep5.wav,None,1000,16,3546322,324,101.285
B,7,3446309,silence.wav,None,1000,16,3548322,324,103.285
B,7,3446309,vowelstep1.wav,None,1000,16,3550321,333,105.285
B,7,3446309,silence.wav,None,1000,16,3552321,333,107.285
B,7,3446309,sinestep1.wav,None,1000,16,3554321,341,109.285
B,7,3446309,vowelstep7.wav,None,1000,16,3556321,324,111.285
B,7,3446309,silence.wav,None,1000,16,3558321,323,113.285
B,7,3446309,sinestep1.wav,None,1000,16,3560321,318,115.285
B,7,3446309,vowelstep3.wav,None,1000,16,3562322,332,117.285
B,7,3446309,vowelstep5.wav,None,1000,16,3564322,331,119.285
B,7,3446309,silence.wav,None,1000,16,3566322,333,121.285
B,7,3446309,sinestep3.wav,None,1000,16,3568322,342,123.285
B,7,3446309,sinestep5.wav,None,1000,16,3570322,321,125.285
B,7,3446309,silence.wav,None,1000,16,3572322,323,127.285
B,7,3446309,vowelstep5.wav,None,1000,16,3574321,322,129.285
B,7,3446309,sinestep3.wav,None,1000,16,3576321,321,131.285
B,7,3446309,sinestep5.wav,None,1000,16,3578321,328,133.285
B,7,3446309,sinestep5.wav,None,1000,16,3580322,331,135.285
B,7,3446309,sinestep7.wav,None,1000,16,3582322,337,137.285
B,7,3446309,sinestep7.wav,None,1000,16,3584322,309,139.285
B,7,3446309,vowelstep5.wav,None,1000,16,3586322,319,141.285
B,7,3446309,sinestep1.wav,None,1000,16,3588322,322,143.285
B,7,3446309,vowelstep7.wav,None,1000,16,3590322,332,145.285
B,7,3446309,sinestep7.wav,None,1000,16,3592322,328,147.285
B,7,3446309,vowelstep5.wav,None,1000,16,3594322,330,149.285
B,7,3446309,vowelstep1.wav,None,1000,16,3596322,329,151.285
B,7,3446309,sinestep3.wav,None,1000,16,3598322,312,153.285
B,7,3446309,silence.wav,None,1000,16,3600322,320,155.285
B,7,3446309,silence.wav,None,1000,16,3602322,320,157.285
B,7,3446309,sinestep7_catch.wav,1,214,16,3604322,320,159.285
B,7,3446309,vowelstep5.wav,None,1000,16,3606322,1113,161.285
B,7,3446309,sinestep7.wav,None,1000,16,3608322,330,163.285
B,7,3446309,vowelstep5.wav,None,1000,16,3610322,328,165.285
B,7,3446309,vowelstep3.wav,None,1000,16,3612322,311,167.285
B,7,3446309,silence.wav,None,1000,16,3614323,318,169.285
B,7,3446309,sinestep3.wav,None,1000,16,3616323,318,171.285
B,7,3446309,sinestep7_catch.wav,1,329,16,3618323,322,173.285
B,7,3446309,sinestep3.wav,None,1000,16,3620323,999,175.285
B,7,3446309,sinestep5_catch.wav,1,332,16,3622322,331,177.285
B,7,3446309,vowelstep5.wav,None,1000,16,3624322,994,179.285
B,7,3446309,silence.wav,None,1000,16,3626322,306,181.285
B,7,3446309,sinestep7.wav,None,1000,16,3628322,317,183.285
B,7,3446309,silence.wav,None,1000,16,3630322,316,185.285
B,7,3446309,sinestep3.wav,None,1000,16,3632323,313,187.285
B,7,3446309,silence.wav,None,1000,16,3634323,325,189.285
B,7,3446309,vowelstep7.wav,None,1000,16,3636323,325,191.285
B,7,3446309,vowelstep3.wav,None,1000,16,3638323,328,193.285
B,7,3446309,vowelstep3.wav,None,1000,16,3640323,338,195.285
B,7,3446309,sinestep7.wav,None,1000,16,3642323,314,197.285
B,7,3446309,sinestep7.wav,None,1000,16,3644323,319,199.285
B,7,3446309,sinestep3.wav,None,1000,16,3646323,314,201.285
B,7,3446309,sinestep3_catch.wav,1,186,16,3648322,327,203.285
B,7,3446309,sinestep1.wav,None,1000,16,3650323,1135,205.285
B,7,3446309,sinestep1.wav,None,1000,16,3652323,326,207.285
B,7,3446309,sinestep3.wav,None,1000,16,3654323,336,209.285
B,7,3446309,silence.wav,None,1000,16,3656323,314,211.285
B,7,3446309,silence.wav,None,1000,16,3658323,316,213.285
B,7,3446309,sinestep5_catch.wav,1,298,16,3660323,315,215.285
B,7,3446309,sinestep7.wav,None,1000,16,3662323,1026,217.285
B,7,3446309,sinestep7.wav,None,1000,16,3664323,326,219.285
B,7,3446309,vowelstep3.wav,None,1000,16,3666323,326,221.285
B,7,3446309,sinestep1_catch.wav,1,260,16,3668324,336,223.285
B,7,3446309,vowelstep5.wav,None,1000,16,3670324,1057,225.285
B,7,3446309,sinestep1.wav,None,1000,16,3672323,335,227.285
B,7,3446309,vowelstep1.wav,None,1000,16,3674323,346,229.285
B,7,3446309,vowelstep1.wav,None,1000,16,3676323,325,231.285
B,7,3446309,sinestep5.wav,None,1000,16,3678323,324,233.285
B,7,3446309,silence.wav,None,1000,16,3680323,323,235.285
B,7,3446309,silence.wav,None,1000,16,3682323,326,237.285
B,7,3446309,vowelstep1.wav,None,1000,16,3684324,333,239.285
B,7,3446309,vowelstep1.wav,None,1000,16,3686324,315,241.285
B,7,3446309,silence.wav,None,1000,16,3688324,309,243.285
B,7,3446309,vowelstep1_catch.wav,1,307,16,3690324,313,245.285
B,7,3446309,sinestep7.wav,None,1000,16,3692324,1014,247.285
B,7,3446309,sinestep1.wav,None,1000,16,3694324,326,249.285
B,7,3446309,vowelstep1.wav,None,1000,16,3696323,333,251.285
B,7,3446309,vowelstep3.wav,None,1000,16,3698323,334,253.285
B,7,3446309,sinestep3.wav,None,1000,16,3700323,333,255.285
B,7,3446309,silence.wav,None,1000,16,3702324,331,257.285
B,7,3446309,vowelstep3.wav,None,1000,16,3704324,320,259.285
B,7,3446309,silence.wav,None,1000,16,3706324,322,261.285
B,7,3446309,vowelstep3.wav,None,1000,16,3708324,317,263.285
B,7,3446309,sinestep5.wav,None,1000,16,3710324,324,265.285
B,7,3446309,vowelstep3_catch.wav,1,454,16,3712324,326,267.285
B,7,3446309,sinestep3.wav,None,1000,16,3714324,873,269.285
B,7,3446309,sinestep1.wav,None,1000,16,3716324,333,271.285
B,7,3446309,vowelstep3.wav,None,1000,16,3718324,312,273.285
B,7,3446309,vowelstep1.wav,None,1000,16,3720324,322,275.285
B,7,3446309,vowelstep5_catch.wav,1,374,16,3722324,322,277.285
B,7,3446309,vowelstep1.wav,None,1000,16,3724324,945,279.285
B,7,3446309,vowelstep5.wav,None,1000,16,3726324,328,281.285
B,7,3446309,sinestep7.wav,None,1000,16,3728324,332,283.285
B,7,3446309,vowelstep7.wav,None,1000,16,3730324,327,285.285
B,7,3446309,vowelstep1_catch.wav,1,295,16,3732324,323,287.285
B,7,3446309,sinestep1.wav,None,1000,16,3734324,1022,289.285
B,7,3446309,vowelstep1.wav,None,1000,16,3736324,318,291.285
B,7,3446309,sinestep5.wav,None,1000,16,3738325,321,293.285
B,7,3446309,vowelstep7.wav,None,1000,16,3740325,330,295.285
B,7,3446309,sinestep7.wav,None,1000,16,3742325,330,297.285
B,7,3446309,vowelstep7_catch.wav,1,294,16,3744324,342,299.285
B,7,3446309,sinestep3.wav,None,1000,16,3746324,1044,301.285
B,7,3446309,vowelstep3.wav,None,1000,16,3748324,318,303.285
B,7,3446309,sinestep5.wav,None,1000,16,3750324,320,305.285
B,7,3446309,vowelstep1.wav,None,1000,16,3752324,318,307.285
B,7,3446309,vowelstep7.wav,None,1000,16,3754325,331,309.285
B,7,3446309,vowelstep1.wav,None,1000,16,3756325,328,311.285
B,7,3446309,sinestep7.wav,None,1000,16,3758325,330,313.285
B,7,3446309,sinestep3.wav,None,1000,16,3760325,341,315.285
B,7,3446309,silence.wav,None,1000,16,3762325,310,317.285
B,7,3446309,vowelstep1.wav,None,1000,16,3764325,318,319.285
F,8,3818918,sinestep1.wav,None,1000,16,3818925,0,1.285
F,8,3818918,vowelstep5.wav,None,1000,16,3820925,342,3.285
F,8,3818918,vowelstep3.wav,None,1000,16,3822925,327,5.285
F,8,3818918,sinestep5.wav,None,1000,16,3824926,326,7.285
F,8,3818918,vowelstep7.wav,None,1000,16,3826926,324,9.285
F,8,3818918,silence.wav,None,1000,16,3828926,330,11.285
F,8,3818918,vowelstep5.wav,None,1000,16,3830926,336,13.285
F,8,3818918,sinestep3.wav,None,1000,16,3832926,334,15.285
F,8,3818918,sinestep3.wav,None,1000,16,3834926,311,17.285
F,8,3818918,silence.wav,None,1000,16,3836926,325,19.285
F,8,3818918,vowelstep7.wav,None,1000,16,3838926,321,21.285
F,8,3818918,vowelstep7.wav,None,1000,16,3840925,336,23.285
F,8,3818918,vowelstep1_catch.wav,1,174,16,3842926,335,25.285
F,8,3818918,vowelstep3_catch.wav,1,258,16,3844926,1159,27.285
F,8,3818918,vowelstep1.wav,None,1000,16,3846926,1073,29.285
F,8,3818918,sinestep5.wav,None,1000,16,3848926,324,31.285
F,8,3818918,sinestep5.wav,None,1000,16,3850926,324,33.285
F,8,3818918,vowelstep7.wav,None,1000,16,3852926,324,35.285
F,8,3818918,sinestep3.wav,None,1000,16,3854926,325,37.285
F,8,3818918,sinestep7.wav,None,1000,16,3856926,334,39.285
F,8,3818918,vowelstep5_catch.wav,1,211,16,3858926,333,41.285
F,8,3818918,sinestep1.wav,None,1000,16,3860927,1116,43.285
F,8,3818918,vowelstep7_catch.wav,1,233,16,3862927,344,45.285
F,8,3818918,vowelstep3.wav,None,1000,16,3864926,1088,47.285
F,8,3818918,sinestep1.wav,None,1000,16,3866926,322,49.285
F,8,3818918,sinestep7.wav,None,1000,16,3868926,320,51.285
F,8,3818918,silence.wav,None,1000,16,3870926,332,53.285
F,8,3818918,sinestep7.wav,None,1000,16,3872926,329,55.285
F,8,3818918,vowelstep1.wav,None,1000,16,3874926,326,57.285
F,8,3818918,vowelstep3.wav,None,1000,16,3876927,310,59.285
F,8,3818918,vowelstep7_catch.wav,1,284,16,3878927,316,61.285
F,8,3818918,sinestep5.wav,None,1000,16,3880927,1038,63.285
F,8,3818918,sinestep3.wav,None,1000,16,3882927,323,65.285
F,8,3818918,vowelstep3.wav,None,1000,16,3884927,329,67.285
F,8,3818918,silence.wav,None,1000,16,3886927,330,69.285
F,8,3818918,vowelstep1.wav,None,1000,16,3888927,331,71.285
F,8,3818918,vowelstep1.wav,None,1000,16,3890926,335,73.285
F,8,3818918,vowelstep5_catch.wav,1,172,16,3892926,321,75.285
F,8,3818918,silence.wav,None,1000,16,3894927,1145,77.285
F,8,3818918,vowelstep3.wav,None,1000,16,3896927,323,79.285
F,8,3818918,vowelstep5.wav,None,1000,16,3898927,320,81.285
F,8,3818918,vowelstep3_catch.wav,1,281,16,3900927,325,83.285
F,8,3818918,vowelstep3.wav,None,1000,16,3902927,1050,85.285
F,8,3818918,sinestep7.wav,None,1000,16,3904927,340,87.285
F,8,3818918,vowelstep1.wav,None,1000,16,3906927,322,89.285
F,8,3818918,sinestep1.wav,None,1000,16,3908927,318,91.285
F,8,3818918,vowelstep1_catch.wav,1,355,16,3910927,322,93.285
F,8,3818918,vowelstep5.wav,None,1000,16,3912927,974,95.285
F,8,3818918,sinestep7.wav,None,1000,16,3914927,331,97.285
F,8,3818918,vowelstep7.wav,None,1000,16,3916927,328,99.285
F,8,3818918,vowelstep3.wav,None,1000,16,3918927,331,101.285
F,8,3818918,sinestep3.wav,None,1000,16,3920927,337,103.285
F,8,3818918,silence.wav,None,1000,16,3922927,320,105.285
F,8,3818918,sinestep1.wav,None,1000,16,3924927,317,107.285
F,8,3818918,sinestep1.wav,None,1000,16,3926927,316,109.285
F,8,3818918,silence.wav,None,1000,16,3928927,331,111.285
F,8,3818918,sinestep7.wav,None,1000,16,3930928,327,113.285
F,8,3818918,vowelstep3.wav,None,1000,16,3932928,332,115.285
F,8,3818918,sinestep3.wav,None,1000,16,3934928,309,117.285
F,8,3818918,vowelstep3.wav,None,1000,16,3936928,338,119.285
F,8,3818918,vowelstep7.wav,None,1000,16,3938927,320,121.285
F,8,3818918,vowelstep7.wav,None,1000,16,3940927,327,123.285
F,8,3818918,vowelstep5.wav,None,1000,16,3942927,330,125.285
F,8,3818918,sinestep1.wav,None,1000,16,3944927,329,127.285
F,8,3818918,silence.wav,None,1000,16,3946928,329,129.285
F,8,3818918,sinestep1.wav,None,1000,16,3948928,331,131.285
F,8,3818918,sinestep3.wav,None,1000,16,3950928,338,133.285
F,8,3818918,sinestep1_catch.wav,1,146,16,3952928,336,135.285
F,8,3818918,sinestep3.wav,None,1000,16,3954928,1199,137.285
F,8,3818918,sinestep3.wav,None,1000,16,3956928,327,139.285
F,8,3818918,silence.wav,None,1000,16,3958928,326,141.285
F,8,3818918,silence.wav,None,1000,16,3960928,329,143.285
F,8,3818918,sinestep7.wav,None,1000,16,3962927,339,145.285
F,8,3818918,sinestep5.wav,None,1000,16,3964928,335,147.285
F,8,3818918,vowelstep1.wav,None,1000,16,3966928,338,149.285
F,8,3818918,sinestep7.wav,None,1000,16,3968928,347,151.285
F,8,3818918,silence.wav,None,1000,16,3970928,328,153.285
F,8,3818918,sinestep3_catch.wav,1,285,16,3972928,325,155.285
F,8,3818918,vowelstep5.wav,None,1000,16,3974928,1040,157.285
F,8,3818918,sinestep3.wav,None,1000,16,3976928,335,159.285
F,8,3818918,vowelstep5.wav,None,1000,16,3978928,336,161.285
F,8,3818918,sinestep3.wav,None,1000,16,3980928,336,163.285
F,8,3818918,vowelstep3.wav,None,1000,16,3982929,342,165.285
F,8,3818918,vowelstep1.wav,None,1000,16,3984929,325,167.285
F,8,3818918,sinestep5.wav,None,1000,16,3986928,327,169.285
F,8,3818918,vowelstep5.wav,None,1000,16,3988928,320,171.285
F,8,3818918,vowelstep1.wav,None,1000,16,3990928,335,173.285
F,8,3818918,vowelstep1.wav,None,1000,16,3992928,335,175.285
F,8,3818918,sinestep7.wav,None,1000,16,3994928,336,177.285
F,8,3818918,vowelstep1.wav,None,1000,16,3996928,345,179.285
F,8,3818918,sinestep5.wav,None,1000,16,3998929,308,181.285
F,8,3818918,vowelstep7.wav,None,1000,16,4000929,325,183.285
F,8,3818918,sinestep1.wav,None,1000,16,4002929,323,185.285
F,8,3818918,vowelstep7.wav,None,1000,16,4004929,336,187.285
F,8,3818918,sinestep5.wav,None,1000,16,4006929,335,189.285
F,8,3818918,vowelstep5.wav,None,1000,16,4008929,336,191.285
F,8,3818918,silence.wav,None,1000,16,4010928,343,193.285
F,8,3818918,sinestep7.wav,None,1000,16,4012928,322,195.285
F,8,3818918,vowelstep5.wav,None,1000,16,4014928,314,197.285
F,8,3818918,vowelstep7.wav,None,1000,16,4016929,326,199.285
F,8,3818918,silence.wav,None,1000,16,4018929,333,201.285
F,8,3818918,vowelstep1.wav,None,1000,16,4020929,334,203.285
F,8,3818918,vowelstep7.wav,None,1000,16,4022929,335,205.285
F,8,3818918,vowelstep7.wav,None,1000,16,4024929,344,207.285
F,8,3818918,vowelstep3.wav,None,1000,16,4026929,345,209.285
F,8,3818918,vowelstep3.wav,None,1000,16,4028929,319,211.285
F,8,3818918,silence.wav,None,1000,16,4030929,326,213.285
F,8,3818918,sinestep7.wav,None,1000,16,4032929,316,215.285
F,8,3818918,sinestep1.wav,None,1000,16,4034929,332,217.285
F,8,3818918,silence.wav,None,1000,16,4036929,335,219.285
F,8,3818918,vowelstep1.wav,None,1000,16,4038929,328,221.285
F,8,3818918,sinestep5_catch.wav,1,229,16,4040929,314,223.285
F,8,3818918,sinestep1.wav,None,1000,16,4042929,1095,225.285
F,8,3818918,silence.wav,None,1000,16,4044929,320,227.285
F,8,3818918,sinestep7.wav,None,1000,16,4046929,324,229.285
F,8,3818918,sinestep7.wav,None,1000,16,4048929,334,231.285
F,8,3818918,silence.wav,None,1000,16,4050929,328,233.285
F,8,3818918,vowelstep5.wav,None,1000,16,4052930,333,235.285
F,8,3818918,sinestep7.wav,None,1000,16,4054930,320,237.285
F,8,3818918,sinestep5.wav,None,1000,16,4056930,318,239.285
F,8,3818918,sinestep5.wav,None,1000,16,4058929,323,241.285
F,8,3818918,silence.wav,None,1000,16,4060929,316,243.285
F,8,3818918,vowelstep3.wav,None,1000,16,4062929,333,245.285
F,8,3818918,vowelstep3.wav,None,1000,16,4064929,333,247.285
F,8,3818918,silence.wav,None,1000,16,4066929,332,249.285
F,8,3818918,sinestep1.wav,None,1000,16,4068930,314,251.285
F,8,3818918,sinestep1.wav,None,1000,16,4070930,322,253.285
F,8,3818918,vowelstep5.wav,None,1000,16,4072930,321,255.285
F,8,3818918,silence.wav,None,1000,16,4074930,320,257.285
F,8,3818918,sinestep5.wav,None,1000,16,4076930,330,259.285
F,8,3818918,sinestep5.wav,None,1000,16,4078930,328,261.285
F,8,3818918,sinestep5.wav,None,1000,16,4080930,331,263.285
F,8,3818918,sinestep7.wav,None,1000,16,4082929,321,265.285
F,8,3818918,sinestep7_catch.wav,1,299,16,4084929,318,267.285
F,8,3818918,sinestep7_catch.wav,1,307,16,4086930,1022,269.285
F,8,3818918,sinestep1.wav,None,1000,16,4088930,1008,271.285
F,8,3818918,vowelstep7.wav,None,1000,16,4090930,330,273.285
F,8,3818918,sinestep3.wav,None,1000,16,4092930,327,275.285
F,8,3818918,sinestep3.wav,None,1000,16,4094930,340,277.285
F,8,3818918,silence.wav,None,1000,16,4096930,341,279.285
F,8,3818918,sinestep5_catch.wav,1,294,16,4098930,320,281.285
F,8,3818918,sinestep5.wav,None,1000,16,4100930,1020,283.285
F,8,3818918,silence.wav,None,1000,16,4102930,318,285.285
F,8,3818918,vowelstep5.wav,None,1000,16,4104931,326,287.285
F,8,3818918,silence.wav,None,1000,16,4106930,329,289.285
F,8,3818918,sinestep1.wav,None,1000,16,4108930,326,291.285
F,8,3818918,sinestep3.wav,None,1000,16,4110930,339,293.285
F,8,3818918,vowelstep3.wav,None,1000,16,4112930,319,295.285
F,8,3818918,silence.wav,None,1000,16,4114930,318,297.285
F,8,3818918,sinestep5.wav,None,1000,16,4116930,319,299.285
F,8,3818918,vowelstep5.wav,None,1000,16,4118930,329,301.285
F,8,3818918,vowelstep5.wav,None,1000,16,4120930,329,303.285
F,8,3818918,vowelstep1.wav,None,1000,16,4122931,327,305.285
F,8,3818918,sinestep3.wav,None,1000,16,4124931,335,307.285
F,8,3818918,silence.wav,None,1000,16,4126931,318,309.285
F,8,3818918,sinestep3_catch.wav,1,314,16,4128931,317,311.285
F,8,3818918,vowelstep1.wav,None,1000,16,4130931,1003,313.285
F,8,3818918,vowelstep7.wav,None,1000,16,4132930,318,315.285
F,8,3818918,vowelstep7.wav,None,1000,16,4134930,327,317.285
F,8,3818918,vowelstep1.wav,None,1000,16,4136930,325,319.285
H,9,4192691,sinestep3.wav,None,1000,16,4192699,0,1.285
H,9,4192691,sinestep7.wav,None,1000,16,4194699,332,3.285
H,9,4192691,sinestep3.wav,None,1000,16,4196698,336,5.285
H,9,4192691,vowelstep3.wav,None,1000,16,4198698,337,7.285
H,9,4192691,vowelstep1.wav,None,1000,16,4200698,316,9.285
H,9,4192691,sinestep7.wav,None,1000,16,4202698,317,11.285
H,9,4192691,vowelstep3.wav,None,1000,16,4204698,327,13.285
H,9,4192691,silence.wav,None,1000,16,4206698,328,15.285
H,9,4192691,vowelstep1.wav,None,1000,16,4208699,336,17.285
H,9,4192691,sinestep5.wav,None,1000,16,4210699,333,19.285
H,9,4192691,sinestep7.wav,None,1000,16,4212699,338,21.285
H,9,4192691,vowelstep7.wav,None,1000,16,4214699,345,23.285
H,9,4192691,vowelstep1_catch.wav,1,143,16,4216699,327,25.285
H,9,4192691,sinestep5.wav,None,1000,16,4218699,1183,27.285
H,9,4192691,vowelstep5.wav,None,1000,16,4220698,321,29.285
H,9,4192691,silence.wav,None,1000,16,4222698,335,31.285
H,9,4192691,vowelstep3_catch.wav,1,375,16,4224698,334,33.285
H,9,4192691,sinestep7.wav,None,1000,16,4226699,958,35.285
H,9,4192691,sinestep5.wav,None,1000,16,4228699,345,37.285
H,9,4192691,silence.wav,None,1000,16,4230699,319,39.285
H,9,4192691,vowelstep3.wav,None,1000,16,4232699,323,41.285
H,9,4192691,vowelstep1.wav,None,1000,16,4234699,325,43.285
H,9,4192691,vowelstep1.wav,None,1000,16,4236699,328,45.285
H,9,4192691,vowelstep3.wav,None,1000,16,4238699,336,47.285
H,9,4192691,sinestep3.wav,None,1000,16,4240699,333,49.285
H,9,4192691,vowelstep1.wav,None,1000,16,4242699,336,51.285
H,9,4192691,sinestep7.wav,None,1000,16,4244699,320,53.285
H,9,4192691,vowelstep7.wav,None,1000,16,4246699,325,55.285
H,9,4192691,vowelstep5_catch.wav,1,275,16,4248699,321,57.285
H,9,4192691,vowelstep5.wav,None,1000,16,4250699,1048,59.285
H,9,4192691,vowelstep3.wav,None,1000,16,4252699,332,61.285
H,9,4192691,vowelstep7_catch.wav,1,245,16,4254699,333,63.285
H,9,4192691,sinestep3.wav,None,1000,16,4256699,1088,65.285
H,9,4192691,sinestep1.wav,None,1000,16,4258699,339,67.285
H,9,4192691,sinestep7.wav,None,1000,16,4260699,323,69.285
H,9,4192691,silence.wav,None,1000,16,4262700,324,71.285
H,9,4192691,vowelstep1.wav,None,1000,16,4264700,322,73.285
H,9,4192691,vowelstep7.wav,None,1000,16,4266700,332,75.285
H,9,4192691,sinestep7.wav,None,1000,16,4268699,333,77.285
H,9,4192691,sinestep1.wav,None,1000,16,4270699,333,79.285
H,9,4192691,sinestep7.wav,None,1000,16,4272699,314,81.285
H,9,4192691,sinestep1.wav,None,1000,16,4274699,323,83.285
H,9,4192691,vowelstep5.wav,None,1000,16,4276699,321,85.285
H,9,4192691,sinestep3.wav,None,1000,16,4278700,325,87.285
H,9,4192691,vowelstep5.wav,None,1000,16,4280700,331,89.285
H,9,4192691,silence.wav,None,1000,16,4282700,331,91.285
H,9,4192691,silence.wav,None,1000,16,4284700,333,93.285
H,9,4192691,sinestep5.wav,None,1000,16,4286700,340,95.285
H,9,4192691,sinestep3.wav,None,1000,16,4288700,322,97.285
H,9,4192691,sinestep7.wav,None,1000,16,4290700,322,99.285
H,9,4192691,sinestep7_catch.wav,1,288,16,4292700,319,101.285
H,9,4192691,silence.wav,None,1000,16,4294699,1037,103.285
H,9,4192691,sinestep3.wav,None,1000,16,4296700,330,105.285
H,9,4192691,silence.wav,None,1000,16,4298700,330,107.285
H,9,4192691,vowelstep1.wav,None,1000,16,4300700,307,109.285
H,9,4192691,vowelstep7.wav,None,1000,16,4302700,321,111.285
H,9,4192691,sinestep5.wav,None,1000,16,4304700,320,113.285
H,9,4192691,silence.wav,None,1000,16,4306700,326,115.285
H,9,4192691,vowelstep7.wav,None,1000,16,4308700,331,117.285
H,9,4192691,vowelstep3.wav,None,1000,16,4310700,331,119.285
H,9,4192691,sinestep5.wav,None,1000,16,4312700,332,121.285
H,9,4192691,sinestep1.wav,None,1000,16,4314701,311,123.285
H,9,4192691,vowelstep3.wav,None,1000,16,4316701,308,125.285
H,9,4192691,vowelstep3.wav,None,1000,16,4318700,312,127.285
H,9,4192691,vowelstep5.wav,None,1000,16,4320700,340,129.285
H,9,4192691,vowelstep1.wav,None,1000,16,4322700,308,131.285
H,9,4192691,vowelstep7.wav,None,1000,16,4324700,322,133.285
H,9,4192691,vowelstep3.wav,None,1000,16,4326700,323,135.285
H,9,4192691,vowelstep5.wav,None,1000,16,4328700,334,137.285
H,9,4192691,vowelstep5.wav,None,1000,16,4330700,338,139.285
H,9,4192691,sinestep7.wav,None,1000,16,4332701,333,141.285
H,9,4192691,vowelstep1.wav,None,1000,16,4334701,348,143.285
H,9,4192691,sinestep3.wav,None,1000,16,4336701,317,145.285
H,9,4192691,sinestep1.wav,None,1000,16,4338701,324,147.285
H,9,4192691,vowelstep1.wav,None,1000,16,4340701,326,149.285
H,9,4192691,sinestep5_catch.wav,1,264,16,4342700,336,151.285
H,9,4192691,sinestep7.wav,None,1000,16,4344700,1068,153.285
H,9,4192691,sinestep3_catch.wav,1,338,16,4346700,335,155.285
H,9,4192691,sinestep7.wav,None,1000,16,4348701,1000,157.285
H,9,4192691,sinestep5.wav,None,1000,16,4350701,348,159.285
H,9,4192691,silence.wav,None,1000,16,4352701,327,161.285
H,9,4192691,sinestep1_catch.wav,1,313,16,4354701,325,163.285
H,9,4192691,vowelstep7.wav,None,1000,16,4356701,1014,165.285
H,9,4192691,vowelstep7.wav,None,1000,16,4358701,333,167.285
H,9,4192691,sinestep7.wav,None,1000,16,4360701,334,169.285
H,9,4192691,sinestep3.wav,None,1000,16,4362701,347,171.285
H,9,4192691,sinestep5.wav,None,1000,16,4364701,315,173.285
H,9,4192691,vowelstep1_catch.wav,1,342,16,4366701,327,175.285
H,9,4192691,vowelstep1.wav,None,1000,16,4368701,984,177.285
H,9,4192691,sinestep3.wav,None,1000,16,4370701,332,179.285
H,9,4192691,sinestep3.wav,None,1000,16,4372701,336,181.285
H,9,4192691,vowelstep5.wav,None,1000,16,4374701,336,183.285
H,9,4192691,sinestep1.wav,None,1000,16,4376701,338,185.285
H,9,4192691,sinestep1.wav,None,1000,16,4378701,346,187.285
H,9,4192691,vowelstep7.wav,None,1000,16,4380701,326,189.285
H,9,4192691,sinestep1.wav,None,1000,16,4382701,325,191.285
H,9,4192691,sinestep5.wav,None,1000,16,4384702,324,193.285
H,9,4192691,vowelstep3_catch.wav,1,276,16,4386702,332,195.285
H,9,4192691,sinestep1.wav,None,1000,16,4388702,1055,197.285
H,9,4192691,silence.wav,None,1000,16,4390701,334,199.285
H,9,4192691,vowelstep1.wav,None,1000,16,4392701,341,201.285
H,9,4192691,vowelstep5_catch.wav,1,252,16,4394701,324,203.285
H,9,4192691,sinestep5.wav,None,1000,16,4396701,1069,205.285
H,9,4192691,sinestep1.wav,None,1000,16,4398701,334,207.285
H,9,4192691,silence.wav,None,1000,16,4400701,335,209.285
H,9,4192691,sinestep3.wav,None,1000,16,4402702,331,211.285
H,9,4192691,silence.wav,None,1000,16,4404702,332,213.285
H,9,4192691,vowelstep7_catch.wav,1,222,16,4406702,314,215.285
H,9,4192691,vowelstep5.wav,None,1000,16,4408702,1097,217.285
H,9,4192691,sinestep7.wav,None,1000,16,4410702,320,219.285
H,9,4192691,silence.wav,None,1000,16,4412702,322,221.285
H,9,4192691,sinestep1.wav,None,1000,16,4414701,330,223.285
H,9,4192691,silence.wav,None,1000,16,4416701,333,225.285
H,9,4192691,silence.wav,None,1000,16,4418702,333,227.285
H,9,4192691,silence.wav,None,1000,16,4420702,338,229.285
H,9,4192691,silence.wav,None,1000,16,4422702,322,231.285
H,9,4192691,sinestep5.wav,None,1000,16,4424702,311,233.285
H,9,4192691,silence.wav,None,1000,16,4426702,321,235.285
H,9,4192691,vowelstep3.wav,None,1000,16,4428702,324,237.285
H,9,4192691,silence.wav,None,1000,16,4430702,327,239.285
H,9,4192691,silence.wav,None,1000,16,4432702,326,241.285
H,9,4192691,vowelstep1_catch.wav,1,308,16,4434702,310,243.285
H,9,4192691,vowelstep5.wav,None,1000,16,4436703,1013,245.285
H,9,4192691,vowelstep7.wav,None,1000,16,4438702,320,247.285
H,9,4192691,vowelstep3_catch.wav,1,350,16,4440702,320,249.285
H,9,4192691,vowelstep1.wav,None,1000,16,4442702,977,251.285
H,9,4192691,sinestep3.wav,None,1000,16,4444702,330,253.285
H,9,4192691,vowelstep5_catch.wav,1,273,16,4446702,326,255.285
H,9,4192691,vowelstep5.wav,None,1000,16,4448702,1058,257.285
H,9,4192691,silence.wav,None,1000,16,4450702,318,259.285
H,9,4192691,vowelstep7.wav,None,1000,16,4452702,319,261.285
H,9,4192691,sinestep5.wav,None,1000,16,4454703,321,263.285
H,9,4192691,vowelstep5.wav,None,1000,16,4456703,321,265.285
H,9,4192691,vowelstep7.wav,None,1000,16,4458703,328,267.285
H,9,4192691,vowelstep3.wav,None,1000,16,4460703,330,269.285
H,9,4192691,vowelstep3.wav,None,1000,16,4462702,341,271.285
H,9,4192691,silence.wav,None,1000,16,4464702,321,273.285
H,9,4192691,vowelstep3.wav,None,1000,16,4466702,321,275.285
H,9,4192691,sinestep1.wav,None,1000,16,4468702,315,277.285
H,9,4192691,silence.wav,None,1000,16,4470702,330,279.285
H,9,4192691,sinestep1.wav,None,1000,16,4472703,326,281.285
H,9,4192691,vowelstep3.wav,None,1000,16,4474703,325,283.285
H,9,4192691,silence.wav,None,1000,16,4476703,328,285.285
H,9,4192691,vowelstep5.wav,None,1000,16,4478703,316,287.285
H,9,4192691,vowelstep5.wav,None,1000,16,4480703,318,289.285
H,9,4192691,vowelstep1.wav,None,1000,16,4482703,317,291.285
H,9,4192691,sinestep5.wav,None,1000,16,4484703,329,293.285
H,9,4192691,vowelstep7.wav,None,1000,16,4486702,330,295.285
H,9,4192691,vowelstep1.wav,None,1000,16,4488703,329,297.285
H,9,4192691,vowelstep7.wav,None,1000,16,4490703,329,299.285
H,9,4192691,vowelstep3.wav,None,1000,16,4492703,338,301.285
H,9,4192691,sinestep1.wav,None,1000,16,4494703,320,303.285
H,9,4192691,sinestep5.wav,None,1000,16,4496703,320,305.285
H,9,4192691,vowelstep5.wav,None,1000,16,4498703,319,307.285
H,9,4192691,sinestep3.wav,None,1000,16,4500703,329,309.285
H,9,4192691,vowelstep7.wav,None,1000,16,4502703,328,311.285
H,9,4192691,sinestep7.wav,None,1000,16,4504703,324,313.285
H,9,4192691,sinestep5.wav,None,1000,16,4506704,307,315.285
H,9,4192691,sinestep3.wav,None,1000,16,4508704,318,317.285
H,9,4192691,sinestep1.wav,None,1000,16,4510703,316,319.285