block,count_main_sequence,first_trial_timestamp,fname,response_catch_response,response_time_catch_response,subject_nr,time_stimulus,time_to_pad,timing
P,NA,257417,vowelstep1_catch.wav,1,768,22,257437,0,
P,NA,257417,sinestep7_catch.wav,None,1000,22,259420,650,
P,NA,257417,vowelstep5_catch.wav,1,570,22,261421,453,
P,NA,257417,sinestep7.wav,None,1000,22,263421,881,
P,NA,257417,sinestep7.wav,None,1000,22,265421,452,
P,NA,257417,sinestep3.wav,None,1000,22,267421,441,
P,NA,257417,sinestep1.wav,None,1000,22,269421,442,
P,NA,257417,vowelstep7.wav,1,826,22,271420,443,
P,NA,257417,vowelstep3.wav,None,1000,22,273420,615,
P,NA,257417,silence.wav,None,1000,22,275420,452,
P,NA,257417,sinestep1.wav,None,1000,22,277420,453,
P,NA,257417,vowelstep1.wav,None,1000,22,279421,453,
P,NA,257417,sinestep5.wav,None,1000,22,281421,442,
P,NA,257417,sinestep1.wav,None,1000,22,283421,442,
P,NA,257417,sinestep1.wav,None,1000,22,285421,441,
P,NA,257417,vowelstep1.wav,1,382,22,287421,452,
P,NA,257417,silence.wav,None,1000,22,289421,1069,
P,NA,257417,silence.wav,None,1000,22,291421,451,
P,NA,257417,silence.wav,None,1000,22,293421,450,
P,NA,257417,sinestep3_catch.wav,1,353,22,295420,441,
P,NA,257417,vowelstep7.wav,None,1000,22,297421,1086,
P,NA,257417,silence.wav,None,1000,22,299421,440,
P,NA,257417,vowelstep7.wav,None,1000,22,301421,439,
P,NA,257417,vowelstep3.wav,None,1000,22,303421,456,
P,NA,257417,silence.wav,None,1000,22,305421,456,
P,NA,257417,vowelstep1.wav,None,1000,22,307421,464,
P,NA,257417,sinestep3.wav,None,1000,22,309421,466,
P,NA,257417,vowelstep1.wav,None,1000,22,311421,446,
P,NA,257417,silence.wav,None,1000,22,313422,444,
P,NA,257417,sinestep7.wav,None,1000,22,315422,445,
P,NA,257417,sinestep5_catch.wav,1,412,22,317422,456,
P,NA,257417,silence.wav,None,1000,22,319421,1044,
P,NA,257417,sinestep7.wav,None,1000,22,321421,466,
P,NA,257417,sinestep5.wav,None,1000,22,323421,435,
P,NA,257417,sinestep3.wav,None,1000,22,325421,445,
P,NA,257417,sinestep1_catch.wav,1,139,22,327421,445,
P,NA,257417,vowelstep3_catch.wav,1,452,22,329421,1305,
P,NA,257417,vowelstep5_catch.wav,1,312,22,331422,1002,
P,NA,257417,vowelstep7.wav,None,1000,22,333422,1141,
P,NA,257417,silence.wav,None,1000,22,335422,453,
P,NA,257417,vowelstep7_catch.wav,1,352,22,337422,463,
P,NA,257417,vowelstep3.wav,None,1000,22,339422,1090,
P,NA,257417,silence.wav,None,1000,22,341422,445,
P,NA,257417,sinestep7_catch.wav,1,235,22,343421,444,
P,NA,257417,sinestep7.wav,None,1000,22,345421,1208,
P,NA,257417,vowelstep5.wav,None,1000,22,347421,454,
P,NA,257417,vowelstep3.wav,None,1000,22,349422,454,
P,NA,257417,sinestep5.wav,None,1000,22,351422,431,
P,NA,257417,sinestep5_catch.wav,1,402,22,353422,442,
P,NA,257417,sinestep3.wav,None,1000,22,355422,1040,
P,NA,257417,silence.wav,None,1000,22,357422,443,
P,NA,257417,vowelstep7.wav,1,336,22,359422,452,
P,NA,257417,sinestep3_catch.wav,1,984,22,361422,1115,
P,NA,257417,vowelstep5.wav,None,1000,22,363422,468,
P,NA,257417,silence.wav,None,1000,22,365422,462,
P,NA,257417,sinestep1.wav,None,1000,22,367422,441,
P,NA,257417,vowelstep1.wav,None,1000,22,369422,439,
P,NA,257417,silence.wav,None,1000,22,371422,440,
P,NA,257417,silence.wav,None,1000,22,373422,451,
P,NA,257417,silence.wav,None,1000,22,375422,451,
P,NA,257417,sinestep1_catch.wav,1,102,22,377422,450,
P,NA,257417,sinestep1.wav,None,1000,22,379422,1358,
P,NA,257417,silence.wav,None,1000,22,381422,441,
P,NA,257417,vowelstep1_catch.wav,1,413,22,383423,439,
P,NA,257417,vowelstep5.wav,None,1000,22,385423,1025,
P,NA,257417,sinestep5.wav,None,1000,22,387423,450,
P,NA,257417,vowelstep3.wav,None,1000,22,389423,449,
P,NA,257417,silence.wav,None,1000,22,391423,450,
P,NA,257417,silence.wav,None,1000,22,393422,459,
P,NA,257417,sinestep7.wav,None,1000,22,395422,429,
P,NA,257417,vowelstep5.wav,None,1000,22,397422,438,
P,NA,257417,silence.wav,None,1000,22,399422,439,
P,NA,257417,vowelstep3_catch.wav,1,400,22,401423,449,
P,NA,257417,silence.wav,None,1000,22,403423,1047,
P,NA,257417,vowelstep5.wav,None,1000,22,405423,448,
P,NA,257417,vowelstep5_catch.wav,None,1000,22,407423,447,
P,NA,257417,vowelstep7_catch.wav,1,435,22,409423,437,
P,NA,257417,sinestep3.wav,None,1000,22,411423,1003,
P,NA,257417,vowelstep5.wav,None,1000,22,413423,437,
P,NA,257417,vowelstep3.wav,None,1000,22,415423,431,
P,NA,257417,silence.wav,None,1000,22,417422,450,
P,NA,257417,sinestep3.wav,None,1000,22,419423,451,
P,NA,257417,silence.wav,None,1000,22,421423,448,
P,NA,257417,sinestep7_catch.wav,1,166,22,423423,430,
P,NA,257417,sinestep5_catch.wav,1,402,22,425423,1274,
P,NA,257417,sinestep5.wav,None,1000,22,427423,1038,
P,NA,257417,sinestep5.wav,None,1000,22,429423,439,
P,NA,257417,vowelstep7.wav,None,1000,22,431423,449,
P,NA,257417,sinestep3_catch.wav,1,597,22,433423,449,
P,NA,257417,vowelstep1.wav,None,1000,22,435424,852,
G,0,854730,vowelstep3.wav,None,1000,22,854746,0,1.285
G,0,854730,vowelstep3.wav,None,1000,22,856747,323,3.285
G,0,854730,vowelstep7.wav,None,1000,22,858747,325,5.285
G,0,854730,vowelstep3.wav,None,1000,22,860747,334,7.285
G,0,854730,sinestep5.wav,None,1000,22,862747,334,9.285
G,0,854730,sinestep1_catch.wav,1,207,22,864747,346,11.285
G,0,854730,silence.wav,None,1000,22,866747,1109,13.285
G,0,854730,silence.wav,None,1000,22,868747,328,15.285
G,0,854730,vowelstep7.wav,None,1000,22,870747,328,17.285
G,0,854730,vowelstep1.wav,None,1000,22,872747,337,19.285
G,0,854730,silence.wav,None,1000,22,874747,310,21.285
G,0,854730,sinestep1.wav,None,1000,22,876747,336,23.285
G,0,854730,vowelstep7.wav,None,1000,22,878747,346,25.285
G,0,854730,sinestep5.wav,None,1000,22,880747,317,27.285
G,0,854730,sinestep5.wav,None,1000,22,882747,324,29.285
G,0,854730,sinestep3.wav,None,1000,22,884747,279,31.285
G,0,854730,vowelstep3.wav,None,1000,22,886747,325,33.285
G,0,854730,silence.wav,None,1000,22,888747,309,35.285
G,0,854730,vowelstep1.wav,None,1000,22,890748,333,37.285
G,0,854730,sinestep7.wav,None,1000,22,892748,344,39.285
G,0,854730,vowelstep5.wav,None,1000,22,894748,315,41.285
G,0,854730,vowelstep3.wav,None,1000,22,896747,325,43.285
G,0,854730,sinestep1.wav,None,1000,22,898747,341,45.285
G,0,854730,sinestep7.wav,None,1000,22,900747,334,47.285
G,0,854730,sinestep1.wav,None,1000,22,902747,334,49.285
G,0,854730,sinestep5.wav,1,94,22,904747,335,51.285
G,0,854730,vowelstep1.wav,None,1000,22,906747,1236,53.285
G,0,854730,silence.wav,None,1000,22,908748,343,55.285
G,0,854730,sinestep5.wav,None,1000,22,910748,343,57.285
G,0,854730,vowelstep1.wav,None,1000,22,912748,344,59.285
G,0,854730,vowelstep3.wav,None,1000,22,914748,350,61.285
G,0,854730,sinestep3.wav,None,1000,22,916748,335,63.285
G,0,854730,sinestep1.wav,None,1000,22,918748,333,65.285
G,0,854730,vowelstep5.wav,None,1000,22,920747,302,67.285
G,0,854730,vowelstep3.wav,None,1000,22,922747,344,69.285
G,0,854730,vowelstep5.wav,None,1000,22,924747,344,71.285
G,0,854730,vowelstep7.wav,None,1000,22,926748,342,73.285
G,0,854730,vowelstep5.wav,None,1000,22,928748,245,75.285
G,0,854730,vowelstep5.wav,None,1000,22,930748,332,77.285
G,0,854730,sinestep3.wav,None,1000,22,932748,332,79.285
G,0,854730,sinestep3_catch.wav,1,225,22,934748,332,81.285
G,0,854730,sinestep5_catch.wav,1,511,22,936748,1118,83.285
G,0,854730,sinestep7.wav,None,1000,22,938748,829,85.285
G,0,854730,sinestep7_catch.wav,1,313,22,940748,343,87.285
G,0,854730,sinestep7.wav,None,1000,22,942749,1025,89.285
G,0,854730,vowelstep1.wav,None,1000,22,944748,330,91.285
G,0,854730,vowelstep7.wav,None,1000,22,946748,330,93.285
G,0,854730,vowelstep3.wav,None,1000,22,948748,331,95.285
G,0,854730,sinestep3.wav,None,1000,22,950748,330,97.285
G,0,854730,sinestep1.wav,None,1000,22,952748,339,99.285
G,0,854730,sinestep1.wav,None,1000,22,954748,336,101.285
G,0,854730,sinestep5.wav,None,1000,22,956748,320,103.285
G,0,854730,vowelstep7.wav,None,1000,22,958748,326,105.285
G,0,854730,silence.wav,None,1000,22,960749,331,107.285
G,0,854730,sinestep3.wav,None,1000,22,962749,323,109.285
G,0,854730,vowelstep1.wav,None,1000,22,964749,337,111.285
G,0,854730,sinestep3.wav,None,1000,22,966749,338,113.285
G,0,854730,sinestep3.wav,None,1000,22,968748,341,115.285
G,0,854730,sinestep7.wav,None,1000,22,970748,341,117.285
G,0,854730,silence.wav,None,1000,22,972748,326,119.285
G,0,854730,vowelstep5.wav,None,1000,22,974748,330,121.285
G,0,854730,sinestep1_catch.wav,1,108,22,976748,325,123.285
G,0,854730,silence.wav,None,1000,22,978749,1221,125.285
G,0,854730,sinestep5.wav,None,1000,22,980749,334,127.285
G,0,854730,sinestep7.wav,None,1000,22,982749,339,129.285
G,0,854730,sinestep3.wav,None,1000,22,984749,347,131.285
G,0,854730,sinestep3.wav,None,1000,22,986749,308,133.285
G,0,854730,vowelstep5.wav,None,1000,22,988749,326,135.285
G,0,854730,sinestep3.wav,None,1000,22,990749,246,137.285
G,0,854730,sinestep3_catch.wav,1,157,22,992748,329,139.285
G,0,854730,vowelstep1.wav,None,1000,22,994748,1180,141.285
G,0,854730,vowelstep1.wav,None,1000,22,996749,334,143.285
G,0,854730,sinestep5.wav,None,1000,22,998749,338,145.285
G,0,854730,silence.wav,None,1000,22,1000749,318,147.285
G,0,854730,sinestep3.wav,None,1000,22,1002749,272,149.285
G,0,854730,silence.wav,None,1000,22,1004749,328,151.285
G,0,854730,vowelstep3.wav,None,1000,22,1006749,329,153.285
G,0,854730,sinestep5.wav,None,1000,22,1008749,340,155.285
G,0,854730,vowelstep7.wav,None,1000,22,1010749,337,157.285
G,0,854730,silence.wav,None,1000,22,1012733,338,159.285
G,0,854730,sinestep5_catch.wav,1,299,22,1014750,348,161.285
G,0,854730,vowelstep5.wav,None,1000,22,1016750,1027,163.285
G,0,854730,silence.wav,None,1000,22,1018749,324,165.285
G,0,854730,vowelstep7.wav,None,1000,22,1020749,328,167.285
G,0,854730,vowelstep1.wav,None,1000,22,1022749,332,169.285
G,0,854730,vowelstep1.wav,None,1000,22,1024733,336,171.285
G,0,854730,vowelstep1.wav,None,1000,22,1026749,366,173.285
G,0,854730,sinestep5.wav,None,1000,22,1028749,316,175.285
G,0,854730,vowelstep3.wav,None,1000,22,1030733,325,177.285
G,0,854730,sinestep1.wav,None,1000,22,1032750,345,179.285
G,0,854730,vowelstep1.wav,None,1000,22,1034750,322,181.285
G,0,854730,sinestep1.wav,None,1000,22,1036750,334,183.285
G,0,854730,sinestep7.wav,None,1000,22,1038750,334,185.285
G,0,854730,sinestep7.wav,None,1000,22,1040733,336,187.285
G,0,854730,sinestep3.wav,None,1000,22,1042733,342,189.285
G,0,854730,sinestep5.wav,None,1000,22,1044749,341,191.285
G,0,854730,silence.wav,None,1000,22,1046749,254,193.285
G,0,854730,sinestep7_catch.wav,1,165,22,1048734,326,195.285
G,0,854730,vowelstep7_catch.wav,1,997,22,1050733,1186,197.285
G,0,854730,sinestep7.wav,None,1000,22,1052750,357,199.285
G,0,854730,silence.wav,None,1000,22,1054750,333,201.285
G,0,854730,sinestep7.wav,None,1000,22,1056733,342,203.285
G,0,854730,sinestep3.wav,None,1000,22,1058733,344,205.285
G,0,854730,vowelstep7.wav,None,1000,22,1060733,342,207.285
G,0,854730,sinestep1.wav,None,1000,22,1062750,354,209.285
G,0,854730,silence.wav,None,1000,22,1064750,334,211.285
G,0,854730,silence.wav,None,1000,22,1066734,330,213.285
G,0,854730,vowelstep7.wav,None,1000,22,1068734,363,215.285
G,0,854730,vowelstep5.wav,None,1000,22,1070750,344,217.285
G,0,854730,sinestep7.wav,None,1000,22,1072734,312,219.285
G,0,854730,vowelstep5.wav,None,1000,22,1074733,340,221.285
G,0,854730,vowelstep5_catch.wav,1,353,22,1076733,353,223.285
G,0,854730,vowelstep7.wav,None,1000,22,1078733,999,225.285
G,0,854730,silence.wav,None,1000,22,1080733,354,227.285
G,0,854730,silence.wav,None,1000,22,1082734,358,229.285
G,0,854730,sinestep1.wav,None,1000,22,1084734,332,231.285
G,0,854730,silence.wav,None,1000,22,1086734,337,233.285
G,0,854730,vowelstep7.wav,None,1000,22,1088734,342,235.285
G,0,854730,vowelstep5.wav,None,1000,22,1090734,343,237.285
G,0,854730,vowelstep3.wav,None,1000,22,1092734,350,239.285
G,0,854730,vowelstep3_catch.wav,None,1000,22,1094734,351,241.285
G,0,854730,sinestep1.wav,None,1000,22,1096734,351,243.285
G,0,854730,silence.wav,None,1000,22,1098733,338,245.285
G,0,854730,sinestep7.wav,None,1000,22,1100734,338,247.285
G,0,854730,sinestep1.wav,None,1000,22,1102734,339,249.285
G,0,854730,sinestep3.wav,None,1000,22,1104734,341,251.285
G,0,854730,vowelstep3.wav,None,1000,22,1106734,350,253.285
G,0,854730,vowelstep1_catch.wav,None,1000,22,1108734,352,255.285
G,0,854730,sinestep7.wav,None,1000,22,1110734,361,257.285
G,0,854730,silence.wav,None,1000,22,1112734,332,259.285
G,0,854730,sinestep5.wav,None,1000,22,1114734,342,261.285
G,0,854730,sinestep5.wav,None,1000,22,1116734,339,263.285
G,0,854730,vowelstep5.wav,None,1000,22,1118735,343,265.285
G,0,854730,sinestep5.wav,None,1000,22,1120735,348,267.285
G,0,854730,sinestep7.wav,None,1000,22,1122734,352,269.285
G,0,854730,silence.wav,None,1000,22,1124734,350,271.285
G,0,854730,vowelstep7_catch.wav,None,1000,22,1126734,362,273.285
G,0,854730,vowelstep5.wav,None,1000,22,1128734,341,275.285
G,0,854730,silence.wav,None,1000,22,1130734,337,277.285
G,0,854730,sinestep3.wav,None,1000,22,1132734,340,279.285
G,0,854730,vowelstep5.wav,None,1000,22,1134734,349,281.285
G,0,854730,silence.wav,None,1000,22,1136735,351,283.285
G,0,854730,vowelstep1.wav,None,1000,22,1138735,358,285.285
G,0,854730,sinestep1.wav,None,1000,22,1140735,360,287.285
G,0,854730,vowelstep3.wav,None,1000,22,1142735,339,289.285
G,0,854730,vowelstep7.wav,None,1000,22,1144735,339,291.285
G,0,854730,vowelstep7.wav,None,1000,22,1146734,297,293.285
G,0,854730,sinestep1.wav,None,1000,22,1148734,346,295.285
G,0,854730,vowelstep5.wav,None,1000,22,1150734,349,297.285
G,0,854730,silence.wav,None,1000,22,1152735,348,299.285
G,0,854730,sinestep1.wav,None,1000,22,1154735,358,301.285
G,0,854730,vowelstep7.wav,None,1000,22,1156735,340,303.285
G,0,854730,vowelstep5_catch.wav,1,190,22,1158735,338,305.285
G,0,854730,vowelstep3.wav,None,1000,22,1160735,1149,307.285
G,0,854730,vowelstep3_catch.wav,1,254,22,1162735,348,309.285
G,0,854730,sinestep7.wav,None,1000,22,1164735,1089,311.285
G,0,854730,sinestep5.wav,None,1000,22,1166735,347,313.285
G,0,854730,vowelstep1.wav,None,1000,22,1168735,357,315.285
G,0,854730,vowelstep3.wav,None,1000,22,1170736,338,317.285
G,0,854730,vowelstep1.wav,None,1000,22,1172735,337,319.285
F,1,1233878,sinestep1.wav,None,1000,22,1233886,0,1.285
F,1,1233878,vowelstep5.wav,None,1000,22,1235886,347,3.285
F,1,1233878,vowelstep3.wav,None,1000,22,1237886,347,5.285
F,1,1233878,sinestep5.wav,None,1000,22,1239887,357,7.285
F,1,1233878,vowelstep7.wav,None,1000,22,1241887,330,9.285
F,1,1233878,silence.wav,None,1000,22,1243887,336,11.285
F,1,1233878,vowelstep5.wav,None,1000,22,1245886,324,13.285
F,1,1233878,sinestep3.wav,None,1000,22,1247886,334,15.285
F,1,1233878,sinestep3.wav,None,1000,22,1249886,341,17.285
F,1,1233878,silence.wav,None,1000,22,1251886,339,19.285
F,1,1233878,vowelstep7.wav,None,1000,22,1253886,350,21.285
F,1,1233878,vowelstep7.wav,None,1000,22,1255886,331,23.285
F,1,1233878,vowelstep1_catch.wav,1,380,22,1257887,331,25.285
F,1,1233878,vowelstep3_catch.wav,1,162,22,1259887,950,27.285
F,1,1233878,vowelstep1.wav,None,1000,22,1261887,1178,29.285
F,1,1233878,sinestep5.wav,None,1000,22,1263887,341,31.285
F,1,1233878,sinestep5.wav,None,1000,22,1265887,341,33.285
F,1,1233878,vowelstep7.wav,None,1000,22,1267887,350,35.285
F,1,1233878,sinestep3.wav,None,1000,22,1269886,329,37.285
F,1,1233878,sinestep7.wav,None,1000,22,1271886,325,39.285
F,1,1233878,vowelstep5_catch.wav,1,256,22,1273886,329,41.285
F,1,1233878,sinestep1.wav,None,1000,22,1275887,1067,43.285
F,1,1233878,vowelstep7_catch.wav,1,144,22,1277887,337,45.285
F,1,1233878,vowelstep3.wav,None,1000,22,1279887,1186,47.285
F,1,1233878,sinestep1.wav,None,1000,22,1281887,348,49.285
F,1,1233878,sinestep7.wav,None,1000,22,1283887,319,51.285
F,1,1233878,silence.wav,None,1000,22,1285887,325,53.285
F,1,1233878,sinestep7.wav,None,1000,22,1287887,329,55.285
F,1,1233878,vowelstep1.wav,None,1000,22,1289887,326,57.285
F,1,1233878,vowelstep3.wav,None,1000,22,1291887,339,59.285
F,1,1233878,vowelstep7_catch.wav,1,333,22,1293887,338,61.285
F,1,1233878,sinestep5.wav,None,1000,22,1295887,1016,63.285
F,1,1233878,sinestep3.wav,None,1000,22,1297887,347,65.285
F,1,1233878,vowelstep3.wav,None,1000,22,1299887,329,67.285
F,1,1233878,silence.wav,None,1000,22,1301887,325,69.285
F,1,1233878,vowelstep1.wav,None,1000,22,1303887,328,71.285
F,1,1233878,vowelstep1.wav,None,1000,22,1305887,338,73.285
F,1,1233878,vowelstep5_catch.wav,1,355,22,1307887,339,75.285
F,1,1233878,silence.wav,None,1000,22,1309888,992,77.285
F,1,1233878,vowelstep3.wav,None,1000,22,1311888,319,79.285
F,1,1233878,vowelstep5.wav,None,1000,22,1313888,329,81.285
F,1,1233878,vowelstep3_catch.wav,1,459,22,1315888,328,83.285
F,1,1233878,vowelstep3.wav,None,1000,22,1317887,876,85.285
F,1,1233878,sinestep7.wav,None,1000,22,1319887,338,87.285
F,1,1233878,vowelstep1.wav,None,1000,22,1321887,338,89.285
F,1,1233878,sinestep1.wav,None,1000,22,1323887,344,91.285
F,1,1233878,vowelstep1_catch.wav,None,1000,22,1325887,317,93.285
F,1,1233878,vowelstep5.wav,None,1000,22,1327888,327,95.285
F,1,1233878,sinestep7.wav,None,1000,22,1329888,327,97.285
F,1,1233878,vowelstep7.wav,None,1000,22,1331888,334,99.285
F,1,1233878,vowelstep3.wav,None,1000,22,1333888,337,101.285
F,1,1233878,sinestep3.wav,None,1000,22,1335888,337,103.285
F,1,1233878,silence.wav,None,1000,22,1337888,336,105.285
F,1,1233878,sinestep1.wav,None,1000,22,1339888,348,107.285
F,1,1233878,sinestep1.wav,None,1000,22,1341887,325,109.285
F,1,1233878,silence.wav,None,1000,22,1343887,326,111.285
F,1,1233878,sinestep7.wav,None,1000,22,1345888,326,113.285
F,1,1233878,vowelstep3.wav,None,1000,22,1347888,335,115.285
F,1,1233878,sinestep3.wav,None,1000,22,1349888,331,117.285
F,1,1233878,vowelstep3.wav,None,1000,22,1351888,338,119.285
F,1,1233878,vowelstep7.wav,None,1000,22,1353888,316,121.285
F,1,1233878,vowelstep7.wav,None,1000,22,1355888,328,123.285
F,1,1233878,vowelstep5.wav,None,1000,22,1357888,330,125.285
F,1,1233878,sinestep1.wav,None,1000,22,1359888,342,127.285
F,1,1233878,silence.wav,None,1000,22,1361888,343,129.285
F,1,1233878,sinestep1.wav,None,1000,22,1363889,343,131.285
F,1,1233878,sinestep3.wav,None,1000,22,1365889,339,133.285
F,1,1233878,sinestep1_catch.wav,None,1000,22,1367888,339,135.285
F,1,1233878,sinestep3.wav,None,1000,22,1369888,331,137.285
F,1,1233878,sinestep3.wav,None,1000,22,1371888,332,139.285
F,1,1233878,silence.wav,None,1000,22,1373888,328,141.285
F,1,1233878,silence.wav,None,1000,22,1375888,340,143.285
F,1,1233878,sinestep7.wav,None,1000,22,1377888,339,145.285
F,1,1233878,sinestep5.wav,None,1000,22,1379889,339,147.285
F,1,1233878,vowelstep1.wav,None,1000,22,1381889,319,149.285
F,1,1233878,sinestep7.wav,None,1000,22,1383889,329,151.285
F,1,1233878,silence.wav,None,1000,22,1385889,330,153.285
F,1,1233878,sinestep3_catch.wav,1,105,22,1387889,321,155.285
F,1,1233878,vowelstep5.wav,None,1000,22,1389889,1233,157.285
F,1,1233878,sinestep3.wav,None,1000,22,1391888,339,159.285
F,1,1233878,vowelstep5.wav,None,1000,22,1393888,341,161.285
F,1,1233878,sinestep3.wav,None,1000,22,1395888,339,163.285
F,1,1233878,vowelstep3.wav,None,1000,22,1397889,331,165.285
F,1,1233878,vowelstep1.wav,None,1000,22,1399889,296,167.285
F,1,1233878,sinestep5.wav,None,1000,22,1401889,326,169.285
F,1,1233878,vowelstep5.wav,None,1000,22,1403889,329,171.285
F,1,1233878,vowelstep1.wav,None,1000,22,1405889,340,173.285
F,1,1233878,vowelstep1.wav,None,1000,22,1407889,335,175.285
F,1,1233878,sinestep7.wav,None,1000,22,1409889,350,177.285
F,1,1233878,vowelstep1.wav,None,1000,22,1411889,330,179.285
F,1,1233878,sinestep5.wav,None,1000,22,1413889,325,181.285
F,1,1233878,vowelstep7.wav,None,1000,22,1415889,329,183.285
F,1,1233878,sinestep1.wav,None,1000,22,1417889,327,185.285
F,1,1233878,vowelstep7.wav,None,1000,22,1419889,338,187.285
F,1,1233878,sinestep5.wav,None,1000,22,1421889,333,189.285
F,1,1233878,vowelstep5.wav,None,1000,22,1423889,348,191.285
F,1,1233878,silence.wav,None,1000,22,1425889,315,193.285
F,1,1233878,sinestep7.wav,None,1000,22,1427889,329,195.285
F,1,1233878,vowelstep5.wav,None,1000,22,1429889,328,197.285
F,1,1233878,vowelstep7.wav,None,1000,22,1431889,325,199.285
F,1,1233878,silence.wav,None,1000,22,1433890,338,201.285
F,1,1233878,vowelstep1.wav,None,1000,22,1435890,333,203.285
F,1,1233878,vowelstep7.wav,None,1000,22,1437890,336,205.285
F,1,1233878,vowelstep7.wav,None,1000,22,1439889,315,207.285
F,1,1233878,vowelstep3.wav,None,1000,22,1441889,326,209.285
F,1,1233878,vowelstep3.wav,None,1000,22,1443889,324,211.285
F,1,1233878,silence.wav,None,1000,22,1445889,322,213.285
F,1,1233878,sinestep7.wav,None,1000,22,1447889,334,215.285
F,1,1233878,sinestep1.wav,None,1000,22,1449890,333,217.285
F,1,1233878,silence.wav,None,1000,22,1451890,334,219.285
F,1,1233878,vowelstep1.wav,None,1000,22,1453890,310,221.285
F,1,1233878,sinestep5_catch.wav,None,1000,22,1455890,323,223.285
F,1,1233878,sinestep1.wav,None,1000,22,1457890,323,225.285
F,1,1233878,silence.wav,None,1000,22,1459890,334,227.285
F,1,1233878,sinestep7.wav,None,1000,22,1461890,335,229.285
F,1,1233878,sinestep7.wav,None,1000,22,1463890,330,231.285
F,1,1233878,silence.wav,None,1000,22,1465889,334,233.285
F,1,1233878,vowelstep5.wav,None,1000,22,1467890,340,235.285
F,1,1233878,sinestep7.wav,None,1000,22,1469890,341,237.285
F,1,1233878,sinestep5.wav,None,1000,22,1471890,322,239.285
F,1,1233878,sinestep5.wav,None,1000,22,1473890,323,241.285
F,1,1233878,silence.wav,None,1000,22,1475890,328,243.285
F,1,1233878,vowelstep3.wav,None,1000,22,1477890,332,245.285
F,1,1233878,vowelstep3.wav,None,1000,22,1479890,332,247.285
F,1,1233878,silence.wav,None,1000,22,1481890,341,249.285
F,1,1233878,sinestep1.wav,None,1000,22,1483890,343,251.285
F,1,1233878,sinestep1.wav,None,1000,22,1485891,317,253.285
F,1,1233878,vowelstep5.wav,None,1000,22,1487890,351,255.285
F,1,1233878,silence.wav,None,1000,22,1489890,329,257.285
F,1,1233878,sinestep5.wav,None,1000,22,1491890,331,259.285
F,1,1233878,sinestep5.wav,None,1000,22,1493890,327,261.285
F,1,1233878,sinestep5.wav,None,1000,22,1495890,341,263.285
F,1,1233878,sinestep7.wav,None,1000,22,1497890,340,265.285
F,1,1233878,sinestep7_catch.wav,None,1000,22,1499890,341,267.285
F,1,1233878,sinestep7_catch.wav,1,283,22,1501890,343,269.285
F,1,1233878,sinestep1.wav,None,1000,22,1503891,1041,271.285
F,1,1233878,vowelstep7.wav,None,1000,22,1505891,325,273.285
F,1,1233878,sinestep3.wav,None,1000,22,1507891,326,275.285
F,1,1233878,sinestep3.wav,None,1000,22,1509891,327,277.285
F,1,1233878,silence.wav,None,1000,22,1511890,337,279.285
F,1,1233878,sinestep5_catch.wav,None,1000,22,1513890,336,281.285
F,1,1233878,sinestep5.wav,None,1000,22,1515890,342,283.285
F,1,1233878,silence.wav,None,1000,22,1517890,315,285.285
F,1,1233878,vowelstep5.wav,None,1000,22,1519891,323,287.285
F,1,1233878,silence.wav,None,1000,22,1521891,327,289.285
F,1,1233878,sinestep1.wav,None,1000,22,1523891,337,291.285
F,1,1233878,sinestep3.wav,None,1000,22,1525891,334,293.285
F,1,1233878,vowelstep3.wav,None,1000,22,1527891,337,295.285
F,1,1233878,silence.wav,None,1000,22,1529891,346,297.285
F,1,1233878,sinestep5.wav,None,1000,22,1531891,328,299.285
F,1,1233878,vowelstep5.wav,None,1000,22,1533891,327,301.285
F,1,1233878,vowelstep5.wav,None,1000,22,1535891,328,303.285
F,1,1233878,vowelstep1.wav,None,1000,22,1537891,327,305.285
F,1,1233878,sinestep3.wav,None,1000,22,1539891,333,307.285
F,1,1233878,silence.wav,None,1000,22,1541891,337,309.285
F,1,1233878,sinestep3_catch.wav,1,154,22,1543891,337,311.285
F,1,1233878,vowelstep1.wav,None,1000,22,1545891,1171,313.285
F,1,1233878,vowelstep7.wav,None,1000,22,1547891,327,315.285
F,1,1233878,vowelstep7.wav,None,1000,22,1549891,326,317.285
F,1,1233878,vowelstep1.wav,None,1000,22,1551891,337,319.285
E,2,1609327,vowelstep7.wav,None,1000,22,1609343,0,1.285
E,2,1609327,sinestep3.wav,None,1000,22,1611342,341,3.285
E,2,1609327,sinestep5.wav,None,1000,22,1613342,320,5.285
E,2,1609327,sinestep1.wav,None,1000,22,1615342,321,7.285
E,2,1609327,sinestep5.wav,None,1000,22,1617342,321,9.285
E,2,1609327,silence.wav,None,1000,22,1619342,328,11.285
E,2,1609327,vowelstep1.wav,None,1000,22,1621342,330,13.285
E,2,1609327,vowelstep7.wav,None,1000,22,1623342,330,15.285
E,2,1609327,vowelstep1.wav,None,1000,22,1625343,310,17.285
E,2,1609327,sinestep1_catch.wav,1,795,22,1627343,320,19.285
E,2,1609327,vowelstep5.wav,None,1000,22,1629343,520,21.285
E,2,1609327,sinestep5.wav,None,1000,22,1631343,320,23.285
E,2,1609327,vowelstep5.wav,None,1000,22,1633343,330,25.285
E,2,1609327,vowelstep3.wav,None,1000,22,1635342,330,27.285
E,2,1609327,sinestep1.wav,None,1000,22,1637342,328,29.285
E,2,1609327,vowelstep5.wav,None,1000,22,1639342,311,31.285
E,2,1609327,silence.wav,None,1000,22,1641342,319,33.285
E,2,1609327,silence.wav,None,1000,22,1643343,319,35.285
E,2,1609327,sinestep3.wav,None,1000,22,1645343,320,37.285
E,2,1609327,sinestep3.wav,None,1000,22,1647343,319,39.285
E,2,1609327,sinestep3.wav,None,1000,22,1649343,328,41.285
E,2,1609327,sinestep1.wav,None,1000,22,1651343,327,43.285
E,2,1609327,vowelstep1.wav,None,1000,22,1653343,337,45.285
E,2,1609327,sinestep1.wav,None,1000,22,1655343,316,47.285
E,2,1609327,vowelstep7.wav,None,1000,22,1657343,324,49.285
E,2,1609327,vowelstep5.wav,None,1000,22,1659343,323,51.285
E,2,1609327,sinestep7.wav,None,1000,22,1661343,326,53.285
E,2,1609327,sinestep1.wav,None,1000,22,1663343,329,55.285
E,2,1609327,vowelstep5.wav,None,1000,22,1665343,329,57.285
E,2,1609327,sinestep3.wav,None,1000,22,1667343,340,59.285
E,2,1609327,vowelstep1.wav,None,1000,22,1669343,298,61.285
E,2,1609327,vowelstep5.wav,None,1000,22,1671343,317,63.285
E,2,1609327,vowelstep3.wav,None,1000,22,1673343,319,65.285
E,2,1609327,sinestep1.wav,None,1000,22,1675343,318,67.285
E,2,1609327,vowelstep3.wav,None,1000,22,1677344,324,69.285
E,2,1609327,silence.wav,None,1000,22,1679344,327,71.285
E,2,1609327,vowelstep3.wav,None,1000,22,1681344,338,73.285
E,2,1609327,sinestep3_catch.wav,1,276,22,1683343,303,75.285
E,2,1609327,sinestep3.wav,None,1000,22,1685343,1041,77.285
E,2,1609327,vowelstep3.wav,None,1000,22,1687343,317,79.285
E,2,1609327,vowelstep7.wav,None,1000,22,1689343,313,81.285
E,2,1609327,silence.wav,None,1000,22,1691343,328,83.285
E,2,1609327,sinestep3.wav,None,1000,22,1693343,323,85.285
E,2,1609327,silence.wav,None,1000,22,1695344,336,87.285
E,2,1609327,sinestep1.wav,None,1000,22,1697344,306,89.285
E,2,1609327,sinestep5_catch.wav,None,1000,22,1699344,315,91.285
E,2,1609327,vowelstep3.wav,None,1000,22,1701344,314,93.285
E,2,1609327,sinestep5.wav,None,1000,22,1703344,326,95.285
E,2,1609327,vowelstep7.wav,None,1000,22,1705344,321,97.285
E,2,1609327,sinestep1.wav,None,1000,22,1707343,327,99.285
E,2,1609327,sinestep5.wav,None,1000,22,1709343,321,101.285
E,2,1609327,sinestep5.wav,None,1000,22,1711343,337,103.285
E,2,1609327,vowelstep7.wav,None,1000,22,1713344,314,105.285
E,2,1609327,vowelstep3.wav,None,1000,22,1715344,336,107.285
E,2,1609327,vowelstep7.wav,None,1000,22,1717344,316,109.285
E,2,1609327,sinestep5.wav,None,1000,22,1719344,324,111.285
E,2,1609327,vowelstep3.wav,None,1000,22,1721344,320,113.285
E,2,1609327,vowelstep7.wav,None,1000,22,1723344,334,115.285
E,2,1609327,sinestep3.wav,None,1000,22,1725344,329,117.285
E,2,1609327,vowelstep7.wav,None,1000,22,1727344,333,119.285
E,2,1609327,silence.wav,None,1000,22,1729345,333,121.285
E,2,1609327,silence.wav,None,1000,22,1731344,316,123.285
E,2,1609327,sinestep7.wav,None,1000,22,1733344,324,125.285
E,2,1609327,sinestep7_catch.wav,None,1000,22,1735344,327,127.285
E,2,1609327,sinestep7.wav,None,1000,22,1737344,326,129.285
E,2,1609327,silence.wav,None,1000,22,1739344,336,131.285
E,2,1609327,sinestep7_catch.wav,1,86,22,1741344,332,133.285
E,2,1609327,sinestep7.wav,None,1000,22,1743344,1248,135.285
E,2,1609327,sinestep5_catch.wav,1,33,22,1745344,347,137.285
E,2,1609327,sinestep1.wav,None,1000,22,1747345,1287,139.285
E,2,1609327,sinestep1.wav,None,1000,22,1749345,320,141.285
E,2,1609327,sinestep1.wav,None,1000,22,1751345,325,143.285
E,2,1609327,sinestep3.wav,None,1000,22,1753345,324,145.285
E,2,1609327,vowelstep5.wav,None,1000,22,1755345,332,147.285
E,2,1609327,silence.wav,None,1000,22,1757344,332,149.285
E,2,1609327,sinestep3_catch.wav,None,1000,22,1759344,345,151.285
E,2,1609327,silence.wav,None,1000,22,1761344,324,153.285
E,2,1609327,sinestep7.wav,None,1000,22,1763344,325,155.285
E,2,1609327,sinestep5.wav,None,1000,22,1765345,323,157.285
E,2,1609327,silence.wav,None,1000,22,1767345,333,159.285
E,2,1609327,vowelstep5.wav,None,1000,22,1769345,334,161.285
E,2,1609327,vowelstep1.wav,None,1000,22,1771345,334,163.285
E,2,1609327,vowelstep3.wav,None,1000,22,1773345,330,165.285
E,2,1609327,sinestep5.wav,None,1000,22,1775345,319,167.285
E,2,1609327,sinestep7.wav,None,1000,22,1777345,318,169.285
E,2,1609327,vowelstep1.wav,None,1000,22,1779345,324,171.285
E,2,1609327,vowelstep7.wav,None,1000,22,1781344,328,173.285
E,2,1609327,sinestep3.wav,None,1000,22,1783345,332,175.285
E,2,1609327,silence.wav,None,1000,22,1785345,331,177.285
E,2,1609327,sinestep1_catch.wav,None,1000,22,1787345,342,179.285
E,2,1609327,sinestep7.wav,None,1000,22,1789345,320,181.285
E,2,1609327,vowelstep1.wav,None,1000,22,1791345,321,183.285
E,2,1609327,sinestep5.wav,None,1000,22,1793345,321,185.285
E,2,1609327,sinestep5.wav,None,1000,22,1795345,332,187.285
E,2,1609327,vowelstep1.wav,None,1000,22,1797345,331,189.285
E,2,1609327,sinestep7.wav,None,1000,22,1799346,332,191.285
E,2,1609327,sinestep3.wav,None,1000,22,1801346,330,193.285
E,2,1609327,sinestep7.wav,None,1000,22,1803346,321,195.285
E,2,1609327,silence.wav,None,1000,22,1805345,317,197.285
E,2,1609327,vowelstep1.wav,None,1000,22,1807345,319,199.285
E,2,1609327,sinestep1.wav,None,1000,22,1809345,319,201.285
E,2,1609327,vowelstep1.wav,None,1000,22,1811345,331,203.285
E,2,1609327,vowelstep1.wav,None,1000,22,1813345,328,205.285
E,2,1609327,vowelstep1_catch.wav,None,1000,22,1815345,331,207.285
E,2,1609327,vowelstep1.wav,None,1000,22,1817346,340,209.285
E,2,1609327,vowelstep1.wav,None,1000,22,1819346,320,211.285
E,2,1609327,silence.wav,None,1000,22,1821346,315,213.285
E,2,1609327,sinestep7.wav,None,1000,22,1823346,317,215.285
E,2,1609327,vowelstep7.wav,None,1000,22,1825346,326,217.285
E,2,1609327,vowelstep3_catch.wav,None,1000,22,1827346,329,219.285
E,2,1609327,vowelstep5.wav,None,1000,22,1829345,326,221.285
E,2,1609327,sinestep3.wav,None,1000,22,1831345,308,223.285
E,2,1609327,silence.wav,None,1000,22,1833345,317,225.285
E,2,1609327,sinestep1.wav,None,1000,22,1835346,318,227.285
E,2,1609327,sinestep5.wav,None,1000,22,1837346,316,229.285
E,2,1609327,sinestep5.wav,None,1000,22,1839346,326,231.285
E,2,1609327,sinestep3.wav,None,1000,22,1841346,322,233.285
E,2,1609327,sinestep5.wav,None,1000,22,1843346,325,235.285
E,2,1609327,vowelstep3.wav,None,1000,22,1845346,301,237.285
E,2,1609327,sinestep7.wav,None,1000,22,1847346,317,239.285
E,2,1609327,sinestep7.wav,None,1000,22,1849346,315,241.285
E,2,1609327,silence.wav,None,1000,22,1851346,319,243.285
E,2,1609327,sinestep3.wav,None,1000,22,1853347,324,245.285
E,2,1609327,sinestep3.wav,None,1000,22,1855346,325,247.285
E,2,1609327,vowelstep3.wav,None,1000,22,1857346,324,249.285
E,2,1609327,silence.wav,None,1000,22,1859330,337,251.285
E,2,1609327,sinestep7.wav,None,1000,22,1861346,328,253.285
E,2,1609327,silence.wav,None,1000,22,1863346,312,255.285
E,2,1609327,vowelstep7.wav,None,1000,22,1865346,311,257.285
E,2,1609327,vowelstep3.wav,None,1000,22,1867346,322,259.285
E,2,1609327,silence.wav,None,1000,22,1869347,322,261.285
E,2,1609327,vowelstep3.wav,None,1000,22,1871347,318,263.285
E,2,1609327,vowelstep1.wav,None,1000,22,1873347,332,265.285
E,2,1609327,vowelstep5.wav,None,1000,22,1875330,307,267.285
E,2,1609327,silence.wav,None,1000,22,1877330,332,269.285
E,2,1609327,vowelstep3.wav,None,1000,22,1879346,342,271.285
E,2,1609327,sinestep1.wav,None,1000,22,1881346,314,273.285
E,2,1609327,vowelstep5_catch.wav,None,1000,22,1883346,324,275.285
E,2,1609327,sinestep7.wav,None,1000,22,1885346,321,277.285
E,2,1609327,sinestep7.wav,None,1000,22,1887347,333,279.285
E,2,1609327,vowelstep7.wav,None,1000,22,1889347,302,281.285
E,2,1609327,silence.wav,None,1000,22,1891330,311,283.285
E,2,1609327,sinestep5.wav,None,1000,22,1893330,341,285.285
E,2,1609327,silence.wav,None,1000,22,1895330,344,287.285
E,2,1609327,silence.wav,None,1000,22,1897347,343,289.285
E,2,1609327,vowelstep5.wav,None,1000,22,1899347,323,291.285
E,2,1609327,vowelstep5.wav,None,1000,22,1901347,329,293.285
E,2,1609327,silence.wav,None,1000,22,1903346,303,295.285
E,2,1609327,vowelstep5.wav,None,1000,22,1905347,308,297.285
E,2,1609327,vowelstep7_catch.wav,None,1000,22,1907331,311,299.285
E,2,1609327,vowelstep7_catch.wav,None,1000,22,1909331,342,301.285
E,2,1609327,vowelstep5.wav,None,1000,22,1911330,341,303.285
E,2,1609327,sinestep1.wav,None,1000,22,1913330,351,305.285
E,2,1609327,vowelstep3.wav,None,1000,22,1915330,321,307.285
E,2,1609327,vowelstep5_catch.wav,None,1000,22,1917347,329,309.285
E,2,1609327,vowelstep7.wav,None,1000,22,1919347,311,311.285
E,2,1609327,vowelstep5.wav,None,1000,22,1921347,313,313.285
E,2,1609327,vowelstep7.wav,None,1000,22,1923331,319,315.285
E,2,1609327,vowelstep1.wav,None,1000,22,1925331,332,317.285
E,2,1609327,vowelstep3_catch.wav,None,1000,22,1927331,338,319.285
H,3,1986310,sinestep3.wav,None,1000,22,1986315,0,1.285
H,3,1986310,sinestep7.wav,None,1000,22,1988315,329,3.285
H,3,1986310,sinestep3.wav,None,1000,22,1990315,335,5.285
H,3,1986310,vowelstep3.wav,None,1000,22,1992315,340,7.285
H,3,1986310,vowelstep1.wav,None,1000,22,1994315,337,9.285
H,3,1986310,sinestep7.wav,None,1000,22,1996315,339,11.285
H,3,1986310,vowelstep3.wav,None,1000,22,1998315,352,13.285
H,3,1986310,silence.wav,None,1000,22,2000315,330,15.285
H,3,1986310,vowelstep1.wav,None,1000,22,2002315,330,17.285
H,3,1986310,sinestep5.wav,None,1000,22,2004315,330,19.285
H,3,1986310,sinestep7.wav,None,1000,22,2006315,332,21.285
H,3,1986310,vowelstep7.wav,None,1000,22,2008315,340,23.285
H,3,1986310,vowelstep1_catch.wav,None,1000,22,2010316,339,25.285
H,3,1986310,sinestep5.wav,None,1000,22,2012316,314,27.285
H,3,1986310,vowelstep5.wav,None,1000,22,2014316,329,29.285
H,3,1986310,silence.wav,None,1000,22,2016315,328,31.285
H,3,1986310,vowelstep3_catch.wav,None,1000,22,2018315,329,33.285
H,3,1986310,sinestep7.wav,None,1000,22,2020315,339,35.285
H,3,1986310,sinestep5.wav,None,1000,22,2022315,336,37.285
H,3,1986310,silence.wav,None,1000,22,2024315,340,39.285
H,3,1986310,vowelstep3.wav,None,1000,22,2026315,325,41.285
H,3,1986310,vowelstep1.wav,None,1000,22,2028316,328,43.285
H,3,1986310,vowelstep1.wav,None,1000,22,2030316,329,45.285
H,3,1986310,vowelstep3.wav,None,1000,22,2032316,326,47.285
H,3,1986310,sinestep3.wav,None,1000,22,2034316,337,49.285
H,3,1986310,vowelstep1.wav,None,1000,22,2036316,339,51.285
H,3,1986310,sinestep7.wav,None,1000,22,2038316,334,53.285
H,3,1986310,vowelstep7.wav,None,1000,22,2040315,347,55.285
H,3,1986310,vowelstep5_catch.wav,None,1000,22,2042315,328,57.285
H,3,1986310,vowelstep5.wav,None,1000,22,2044316,325,59.285
H,3,1986310,vowelstep3.wav,None,1000,22,2046316,327,61.285
H,3,1986310,vowelstep7_catch.wav,None,1000,22,2048316,337,63.285
H,3,1986310,sinestep3.wav,None,1000,22,2050316,337,65.285
H,3,1986310,sinestep1.wav,None,1000,22,2052316,337,67.285
H,3,1986310,sinestep7.wav,None,1000,22,2054316,332,69.285
H,3,1986310,silence.wav,None,1000,22,2056316,326,71.285
H,3,1986310,vowelstep1.wav,None,1000,22,2058316,326,73.285
H,3,1986310,vowelstep7.wav,None,1000,22,2060316,328,75.285
H,3,1986310,sinestep7.wav,None,1000,22,2062317,326,77.285
H,3,1986310,sinestep1.wav,None,1000,22,2064316,336,79.285
H,3,1986310,sinestep7.wav,None,1000,22,2066316,336,81.285
H,3,1986310,sinestep1.wav,None,1000,22,2068316,335,83.285
H,3,1986310,vowelstep5.wav,None,1000,22,2070316,341,85.285
H,3,1986310,sinestep3.wav,None,1000,22,2072316,326,87.285
H,3,1986310,vowelstep5.wav,None,1000,22,2074316,320,89.285
H,3,1986310,silence.wav,None,1000,22,2076316,324,91.285
H,3,1986310,silence.wav,None,1000,22,2078316,335,93.285
H,3,1986310,sinestep5.wav,None,1000,22,2080317,333,95.285
H,3,1986310,sinestep3.wav,None,1000,22,2082317,345,97.285
H,3,1986310,sinestep7.wav,None,1000,22,2084317,315,99.285
H,3,1986310,sinestep7_catch.wav,None,1000,22,2086317,321,101.285
H,3,1986310,silence.wav,None,1000,22,2088316,325,103.285
H,3,1986310,sinestep3.wav,None,1000,22,2090316,333,105.285
H,3,1986310,silence.wav,None,1000,22,2092316,331,107.285
H,3,1986310,vowelstep1.wav,None,1000,22,2094316,334,109.285
H,3,1986310,vowelstep7.wav,None,1000,22,2096316,334,111.285
H,3,1986310,sinestep5.wav,None,1000,22,2098317,314,113.285
H,3,1986310,silence.wav,None,1000,22,2100317,324,115.285
H,3,1986310,vowelstep7.wav,None,1000,22,2102317,320,117.285
H,3,1986310,vowelstep3.wav,None,1000,22,2104317,322,119.285
H,3,1986310,sinestep5.wav,None,1000,22,2106317,332,121.285
H,3,1986310,sinestep1.wav,None,1000,22,2108317,333,123.285
H,3,1986310,vowelstep3.wav,None,1000,22,2110317,342,125.285
H,3,1986310,vowelstep3.wav,None,1000,22,2112316,313,127.285
H,3,1986310,vowelstep5.wav,None,1000,22,2114317,322,129.285
H,3,1986310,vowelstep1.wav,None,1000,22,2116317,321,131.285
H,3,1986310,vowelstep7.wav,None,1000,22,2118317,329,133.285
H,3,1986310,vowelstep3.wav,None,1000,22,2120317,332,135.285
H,3,1986310,vowelstep5.wav,None,1000,22,2122317,327,137.285
H,3,1986310,vowelstep5.wav,None,1000,22,2124317,333,139.285
H,3,1986310,sinestep7.wav,None,1000,22,2126317,337,141.285
H,3,1986310,vowelstep1.wav,None,1000,22,2128317,319,143.285
H,3,1986310,sinestep3.wav,None,1000,22,2130317,320,145.285
H,3,1986310,sinestep1.wav,None,1000,22,2132318,350,147.285
H,3,1986310,vowelstep1.wav,None,1000,22,2134318,326,149.285
H,3,1986310,sinestep5_catch.wav,None,1000,22,2136318,329,151.285
H,3,1986310,sinestep7.wav,None,1000,22,2138317,330,153.285
H,3,1986310,sinestep3_catch.wav,None,1000,22,2140317,339,155.285
H,3,1986310,sinestep7.wav,None,1000,22,2142317,341,157.285
H,3,1986310,sinestep5.wav,None,1000,22,2144317,339,159.285
H,3,1986310,silence.wav,None,1000,22,2146317,321,161.285
H,3,1986310,sinestep1_catch.wav,None,1000,22,2148317,331,163.285
H,3,1986310,vowelstep7.wav,None,1000,22,2150318,328,165.285
H,3,1986310,vowelstep7.wav,None,1000,22,2152318,330,167.285
H,3,1986310,sinestep7.wav,None,1000,22,2154318,339,169.285
H,3,1986310,sinestep3.wav,None,1000,22,2156318,338,171.285
H,3,1986310,sinestep5.wav,None,1000,22,2158318,340,173.285
H,3,1986310,vowelstep1_catch.wav,None,1000,22,2160318,349,175.285
H,3,1986310,vowelstep1.wav,None,1000,22,2162317,326,177.285
H,3,1986310,sinestep3.wav,None,1000,22,2164317,331,179.285
H,3,1986310,sinestep3.wav,None,1000,22,2166318,328,181.285
H,3,1986310,vowelstep5.wav,None,1000,22,2168318,331,183.285
H,3,1986310,sinestep1.wav,None,1000,22,2170318,339,185.285
H,3,1986310,sinestep1.wav,None,1000,22,2172318,339,187.285
H,3,1986310,vowelstep7.wav,None,1000,22,2174318,345,189.285
H,3,1986310,sinestep1.wav,None,1000,22,2176318,327,191.285
H,3,1986310,sinestep5.wav,None,1000,22,2178318,326,193.285
H,3,1986310,vowelstep3_catch.wav,None,1000,22,2180318,328,195.285
H,3,1986310,sinestep1.wav,None,1000,22,2182318,333,197.285
H,3,1986310,silence.wav,None,1000,22,2184319,337,199.285
H,3,1986310,vowelstep1.wav,None,1000,22,2186318,333,201.285
H,3,1986310,vowelstep5_catch.wav,None,1000,22,2188318,348,203.285
H,3,1986310,sinestep5.wav,None,1000,22,2190318,321,205.285
H,3,1986310,sinestep1.wav,None,1000,22,2192318,324,207.285
H,3,1986310,silence.wav,None,1000,22,2194318,328,209.285
H,3,1986310,sinestep3.wav,None,1000,22,2196318,328,211.285
H,3,1986310,silence.wav,None,1000,22,2198318,335,213.285
H,3,1986310,vowelstep7_catch.wav,None,1000,22,2200318,337,215.285
H,3,1986310,vowelstep5.wav,None,1000,22,2202319,344,217.285
H,3,1986310,sinestep7.wav,None,1000,22,2204319,347,219.285
H,3,1986310,silence.wav,None,1000,22,2206319,329,221.285
H,3,1986310,sinestep1.wav,None,1000,22,2208319,327,223.285
H,3,1986310,silence.wav,None,1000,22,2210318,328,225.285
H,3,1986310,silence.wav,None,1000,22,2212318,338,227.285
H,3,1986310,silence.wav,None,1000,22,2214318,335,229.285
H,3,1986310,silence.wav,None,1000,22,2216318,337,231.285
H,3,1986310,sinestep5.wav,None,1000,22,2218318,317,233.285
H,3,1986310,silence.wav,None,1000,22,2220319,321,235.285
H,3,1986310,vowelstep3.wav,None,1000,22,2222319,327,237.285
H,3,1986310,silence.wav,None,1000,22,2224319,319,239.285
H,3,1986310,silence.wav,None,1000,22,2226319,336,241.285
H,3,1986310,vowelstep1_catch.wav,None,1000,22,2228319,333,243.285
H,3,1986310,vowelstep5.wav,None,1000,22,2230319,337,245.285
H,3,1986310,vowelstep7.wav,None,1000,22,2232319,326,247.285
H,3,1986310,vowelstep3_catch.wav,None,1000,22,2234319,327,249.285
H,3,1986310,vowelstep1.wav,None,1000,22,2236319,326,251.285
H,3,1986310,sinestep3.wav,None,1000,22,2238319,327,253.285
H,3,1986310,vowelstep5_catch.wav,None,1000,22,2240319,337,255.285
H,3,1986310,vowelstep5.wav,None,1000,22,2242319,336,257.285
H,3,1986310,silence.wav,None,1000,22,2244319,336,259.285
H,3,1986310,vowelstep7.wav,None,1000,22,2246319,312,261.285
H,3,1986310,sinestep5.wav,None,1000,22,2248319,324,263.285
H,3,1986310,vowelstep5.wav,None,1000,22,2250319,325,265.285
H,3,1986310,vowelstep7.wav,None,1000,22,2252319,326,267.285
H,3,1986310,vowelstep3.wav,None,1000,22,2254320,329,269.285
H,3,1986310,vowelstep3.wav,None,1000,22,2256320,332,271.285
H,3,1986310,silence.wav,None,1000,22,2258320,331,273.285
H,3,1986310,vowelstep3.wav,None,1000,22,2260319,343,275.285
H,3,1986310,sinestep1.wav,None,1000,22,2262319,318,277.285
H,3,1986310,silence.wav,None,1000,22,2264319,322,279.285
H,3,1986310,sinestep1.wav,None,1000,22,2266319,322,281.285
H,3,1986310,vowelstep3.wav,None,1000,22,2268319,329,283.285
H,3,1986310,silence.wav,None,1000,22,2270319,334,285.285
H,3,1986310,vowelstep5.wav,None,1000,22,2272320,331,287.285
H,3,1986310,vowelstep5.wav,None,1000,22,2274320,338,289.285
H,3,1986310,vowelstep1.wav,None,1000,22,2276320,282,291.285
H,3,1986310,sinestep5.wav,None,1000,22,2278320,317,293.285
H,3,1986310,vowelstep7.wav,None,1000,22,2280320,323,295.285
H,3,1986310,vowelstep1.wav,None,1000,22,2282320,328,297.285
H,3,1986310,vowelstep7.wav,None,1000,22,2284319,333,299.285
H,3,1986310,vowelstep3.wav,None,1000,22,2286319,334,301.285
H,3,1986310,sinestep1.wav,None,1000,22,2288319,342,303.285
H,3,1986310,sinestep5.wav,None,1000,22,2290320,323,305.285
H,3,1986310,vowelstep5.wav,None,1000,22,2292320,323,307.285
H,3,1986310,sinestep3.wav,None,1000,22,2294320,320,309.285
H,3,1986310,vowelstep7.wav,None,1000,22,2296320,333,311.285
H,3,1986310,sinestep7.wav,None,1000,22,2298320,331,313.285
H,3,1986310,sinestep5.wav,None,1000,22,2300320,330,315.285
H,3,1986310,sinestep3.wav,None,1000,22,2302320,334,317.285
H,3,1986310,sinestep1.wav,None,1000,22,2304320,322,319.285
B,4,2363391,vowelstep5.wav,None,1000,22,2363405,0,1.285
B,4,2363391,silence.wav,None,1000,22,2365404,329,3.285
B,4,2363391,sinestep7.wav,None,1000,22,2367404,327,5.285
B,4,2363391,vowelstep1_catch.wav,1,215,22,2369404,320,7.285
B,4,2363391,vowelstep7.wav,None,1000,22,2371404,1101,9.285
B,4,2363391,vowelstep3.wav,None,1000,22,2373404,321,11.285
B,4,2363391,vowelstep7.wav,None,1000,22,2375404,311,13.285
B,4,2363391,vowelstep5.wav,None,1000,22,2377405,326,15.285
B,4,2363391,vowelstep7.wav,None,1000,22,2379405,327,17.285
B,4,2363391,vowelstep3.wav,None,1000,22,2381405,338,19.285
B,4,2363391,silence.wav,None,1000,22,2383405,314,21.285
B,4,2363391,silence.wav,None,1000,22,2385405,317,23.285
B,4,2363391,sinestep5.wav,None,1000,22,2387405,317,25.285
B,4,2363391,sinestep1.wav,None,1000,22,2389404,328,27.285
B,4,2363391,vowelstep7.wav,None,1000,22,2391404,326,29.285
B,4,2363391,sinestep5.wav,None,1000,22,2393404,327,31.285
B,4,2363391,vowelstep1.wav,None,1000,22,2395405,326,33.285
B,4,2363391,vowelstep7.wav,None,1000,22,2397405,316,35.285
B,4,2363391,vowelstep3.wav,None,1000,22,2399405,312,37.285
B,4,2363391,sinestep5.wav,None,1000,22,2401405,315,39.285
B,4,2363391,vowelstep1.wav,None,1000,22,2403405,315,41.285
B,4,2363391,sinestep3.wav,None,1000,22,2405405,325,43.285
B,4,2363391,vowelstep5.wav,None,1000,22,2407405,327,45.285
B,4,2363391,vowelstep7.wav,None,1000,22,2409405,325,47.285
B,4,2363391,vowelstep3.wav,None,1000,22,2411406,315,49.285
B,4,2363391,sinestep7.wav,None,1000,22,2413405,314,51.285
B,4,2363391,sinestep3.wav,None,1000,22,2415405,312,53.285
B,4,2363391,sinestep1.wav,None,1000,22,2417405,315,55.285
B,4,2363391,sinestep1.wav,None,1000,22,2419405,322,57.285
B,4,2363391,sinestep5.wav,1,399,22,2421405,327,59.285
B,4,2363391,vowelstep5.wav,None,1000,22,2423405,921,61.285
B,4,2363391,vowelstep3_catch.wav,1,200,22,2425405,305,63.285
B,4,2363391,vowelstep7.wav,None,1000,22,2427405,1113,65.285
B,4,2363391,sinestep1.wav,None,1000,22,2429406,314,67.285
B,4,2363391,vowelstep5.wav,None,1000,22,2431406,309,69.285
B,4,2363391,vowelstep5_catch.wav,1,42,22,2433406,322,71.285
B,4,2363391,vowelstep7.wav,None,1000,22,2435406,1281,73.285
B,4,2363391,sinestep3.wav,None,1000,22,2437406,315,75.285
B,4,2363391,vowelstep7_catch.wav,1,214,22,2439405,311,77.285
B,4,2363391,sinestep5.wav,None,1000,22,2441405,1116,79.285
B,4,2363391,vowelstep5.wav,None,1000,22,2443405,313,81.285
B,4,2363391,silence.wav,None,1000,22,2445405,344,83.285
B,4,2363391,silence.wav,None,1000,22,2447406,324,85.285
B,4,2363391,vowelstep3.wav,None,1000,22,2449406,318,87.285
B,4,2363391,silence.wav,None,1000,22,2451406,321,89.285
B,4,2363391,sinestep1.wav,None,1000,22,2453406,329,91.285
B,4,2363391,sinestep1.wav,None,1000,22,2455406,331,93.285
B,4,2363391,sinestep5.wav,None,1000,22,2457406,332,95.285
B,4,2363391,vowelstep7.wav,None,1000,22,2459406,343,97.285
B,4,2363391,sinestep5.wav,None,1000,22,2461406,324,99.285
B,4,2363391,sinestep5.wav,None,1000,22,2463405,321,101.285
B,4,2363391,silence.wav,None,1000,22,2465406,323,103.285
B,4,2363391,vowelstep1.wav,None,1000,22,2467406,327,105.285
B,4,2363391,silence.wav,None,1000,22,2469406,334,107.285
B,4,2363391,sinestep1.wav,None,1000,22,2471406,332,109.285
B,4,2363391,vowelstep7.wav,None,1000,22,2473406,344,111.285
B,4,2363391,silence.wav,None,1000,22,2475406,313,113.285
B,4,2363391,sinestep1.wav,None,1000,22,2477406,323,115.285
B,4,2363391,vowelstep3.wav,None,1000,22,2479406,324,117.285
B,4,2363391,vowelstep5.wav,None,1000,22,2481407,329,119.285
B,4,2363391,silence.wav,None,1000,22,2483407,333,121.285
B,4,2363391,sinestep3.wav,None,1000,22,2485407,329,123.285
B,4,2363391,sinestep5.wav,1,250,22,2487406,312,125.285
B,4,2363391,silence.wav,None,1000,22,2489406,1069,127.285
B,4,2363391,vowelstep5.wav,None,1000,22,2491406,322,129.285
B,4,2363391,sinestep3.wav,None,1000,22,2493406,321,131.285
B,4,2363391,sinestep5.wav,None,1000,22,2495406,328,133.285
B,4,2363391,sinestep5.wav,None,1000,22,2497406,332,135.285
B,4,2363391,sinestep7.wav,None,1000,22,2499407,327,137.285
B,4,2363391,sinestep7.wav,None,1000,22,2501407,331,139.285
B,4,2363391,vowelstep5.wav,None,1000,22,2503407,322,141.285
B,4,2363391,sinestep1.wav,None,1000,22,2505407,319,143.285
B,4,2363391,vowelstep7.wav,None,1000,22,2507407,320,145.285
B,4,2363391,sinestep7.wav,None,1000,22,2509407,321,147.285
B,4,2363391,vowelstep5.wav,None,1000,22,2511406,328,149.285
B,4,2363391,vowelstep1.wav,None,1000,22,2513406,330,151.285
B,4,2363391,sinestep3.wav,None,1000,22,2515406,305,153.285
B,4,2363391,silence.wav,None,1000,22,2517407,311,155.285
B,4,2363391,silence.wav,None,1000,22,2519407,317,157.285
B,4,2363391,sinestep7_catch.wav,1,199,22,2521407,320,159.285
B,4,2363391,vowelstep5.wav,None,1000,22,2523407,1119,161.285
B,4,2363391,sinestep7.wav,None,1000,22,2525407,330,163.285
B,4,2363391,vowelstep5.wav,None,1000,22,2527407,326,165.285
B,4,2363391,vowelstep3.wav,None,1000,22,2529407,329,167.285
B,4,2363391,silence.wav,None,1000,22,2531407,319,169.285
B,4,2363391,sinestep3.wav,None,1000,22,2533407,319,171.285
B,4,2363391,sinestep7_catch.wav,1,372,22,2535407,319,173.285
B,4,2363391,sinestep3.wav,None,1000,22,2537407,946,175.285
B,4,2363391,sinestep5_catch.wav,1,188,22,2539407,328,177.285
B,4,2363391,vowelstep5.wav,None,1000,22,2541407,1140,179.285
B,4,2363391,silence.wav,None,1000,22,2543407,326,181.285
B,4,2363391,sinestep7.wav,None,1000,22,2545407,310,183.285
B,4,2363391,silence.wav,None,1000,22,2547407,316,185.285
B,4,2363391,sinestep3.wav,None,1000,22,2549407,318,187.285
B,4,2363391,silence.wav,None,1000,22,2551408,327,189.285
B,4,2363391,vowelstep7.wav,None,1000,22,2553408,328,191.285
B,4,2363391,vowelstep3.wav,None,1000,22,2555408,328,193.285
B,4,2363391,vowelstep3.wav,None,1000,22,2557408,314,195.285
B,4,2363391,sinestep7.wav,None,1000,22,2559407,337,197.285
B,4,2363391,sinestep7.wav,None,1000,22,2561407,319,199.285
B,4,2363391,sinestep3.wav,None,1000,22,2563407,313,201.285
B,4,2363391,sinestep3_catch.wav,1,189,22,2565407,319,203.285
B,4,2363391,sinestep1.wav,None,1000,22,2567407,1136,205.285
B,4,2363391,sinestep1.wav,None,1000,22,2569408,328,207.285
B,4,2363391,sinestep3.wav,None,1000,22,2571408,326,209.285
B,4,2363391,silence.wav,None,1000,22,2573408,337,211.285
B,4,2363391,silence.wav,None,1000,22,2575408,314,213.285
B,4,2363391,sinestep5_catch.wav,1,138,22,2577408,313,215.285
B,4,2363391,sinestep7.wav,None,1000,22,2579408,1177,217.285
B,4,2363391,sinestep7.wav,None,1000,22,2581408,327,219.285
B,4,2363391,vowelstep3.wav,None,1000,22,2583407,328,221.285
B,4,2363391,sinestep1_catch.wav,1,149,22,2585407,325,223.285
B,4,2363391,vowelstep5.wav,None,1000,22,2587408,1158,225.285
B,4,2363391,sinestep1.wav,None,1000,22,2589408,307,227.285
B,4,2363391,vowelstep1.wav,None,1000,22,2591408,314,229.285
B,4,2363391,vowelstep1.wav,None,1000,22,2593408,316,231.285
B,4,2363391,sinestep5.wav,None,1000,22,2595408,325,233.285
B,4,2363391,silence.wav,None,1000,22,2597408,326,235.285
B,4,2363391,silence.wav,None,1000,22,2599408,321,237.285
B,4,2363391,vowelstep1.wav,None,1000,22,2601408,336,239.285
B,4,2363391,vowelstep1.wav,None,1000,22,2603409,314,241.285
B,4,2363391,silence.wav,None,1000,22,2605409,314,243.285
B,4,2363391,vowelstep1_catch.wav,1,203,22,2607409,311,245.285
B,4,2363391,sinestep7.wav,None,1000,22,2609408,1121,247.285
B,4,2363391,sinestep1.wav,None,1000,22,2611408,320,249.285
B,4,2363391,vowelstep1.wav,None,1000,22,2613408,326,251.285
B,4,2363391,vowelstep3.wav,None,1000,22,2615408,334,253.285
B,4,2363391,sinestep3.wav,None,1000,22,2617408,306,255.285
B,4,2363391,silence.wav,None,1000,22,2619408,315,257.285
B,4,2363391,vowelstep3.wav,None,1000,22,2621409,311,259.285
B,4,2363391,silence.wav,None,1000,22,2623409,323,261.285
B,4,2363391,vowelstep3.wav,None,1000,22,2625409,320,263.285
B,4,2363391,sinestep5.wav,None,1000,22,2627409,324,265.285
B,4,2363391,vowelstep3_catch.wav,1,279,22,2629409,322,267.285
B,4,2363391,sinestep3.wav,None,1000,22,2631409,1028,269.285
B,4,2363391,sinestep1.wav,None,1000,22,2633408,311,271.285
B,4,2363391,vowelstep3.wav,None,1000,22,2635408,310,273.285
B,4,2363391,vowelstep1.wav,None,1000,22,2637408,312,275.285
B,4,2363391,vowelstep5_catch.wav,1,345,22,2639409,318,277.285
B,4,2363391,vowelstep1.wav,None,1000,22,2641409,974,279.285
B,4,2363391,vowelstep5.wav,None,1000,22,2643409,330,281.285
B,4,2363391,sinestep7.wav,None,1000,22,2645409,330,283.285
B,4,2363391,vowelstep7.wav,None,1000,22,2647409,303,285.285
B,4,2363391,vowelstep1_catch.wav,None,1000,22,2649409,308,287.285
B,4,2363391,sinestep1.wav,None,1000,22,2651409,310,289.285
B,4,2363391,vowelstep1.wav,None,1000,22,2653409,323,291.285
B,4,2363391,sinestep5.wav,None,1000,22,2655409,318,293.285
B,4,2363391,vowelstep7.wav,None,1000,22,2657409,320,295.285
B,4,2363391,sinestep7.wav,None,1000,22,2659409,299,297.285
B,4,2363391,vowelstep7_catch.wav,1,44,22,2661409,310,299.285
B,4,2363391,sinestep3.wav,None,1000,22,2663409,1266,301.285
B,4,2363391,vowelstep3.wav,None,1000,22,2665409,308,303.285
B,4,2363391,sinestep5.wav,None,1000,22,2667409,320,305.285
B,4,2363391,vowelstep1.wav,None,1000,22,2669409,320,307.285
B,4,2363391,vowelstep7.wav,None,1000,22,2671409,316,309.285
B,4,2363391,vowelstep1.wav,None,1000,22,2673410,330,311.285
B,4,2363391,sinestep7.wav,None,1000,22,2675410,309,313.285
B,4,2363391,sinestep3.wav,None,1000,22,2677410,310,315.285
B,4,2363391,silence.wav,None,1000,22,2679410,308,317.285
B,4,2363391,vowelstep1.wav,None,1000,22,2681409,319,319.285
C,5,2742842,sinestep1.wav,None,1000,22,2742860,0,1.285
C,5,2742842,vowelstep1.wav,None,1000,22,2744861,336,3.285
C,5,2742842,sinestep1.wav,None,1000,22,2746861,313,5.285
C,5,2742842,sinestep1.wav,None,1000,22,2748861,317,7.285
C,5,2742842,vowelstep1.wav,None,1000,22,2750861,316,9.285
C,5,2742842,sinestep1.wav,None,1000,22,2752861,317,11.285
C,5,2742842,sinestep7.wav,None,1000,22,2754860,163,13.285
C,5,2742842,vowelstep7.wav,None,1000,22,2756860,327,15.285
C,5,2742842,vowelstep3.wav,None,1000,22,2758860,305,17.285
C,5,2742842,vowelstep5.wav,None,1000,22,2760861,316,19.285
C,5,2742842,silence.wav,None,1000,22,2762861,311,21.285
C,5,2742842,sinestep3.wav,None,1000,22,2764861,315,23.285
C,5,2742842,vowelstep5.wav,None,1000,22,2766861,271,25.285
C,5,2742842,sinestep1.wav,None,1000,22,2768861,325,27.285
C,5,2742842,vowelstep1.wav,None,1000,22,2770861,326,29.285
C,5,2742842,vowelstep7.wav,None,1000,22,2772861,324,31.285
C,5,2742842,vowelstep3.wav,None,1000,22,2774861,311,33.285
C,5,2742842,sinestep1.wav,None,1000,22,2776861,317,35.285
C,5,2742842,sinestep5.wav,None,1000,22,2778861,309,37.285
C,5,2742842,silence.wav,None,1000,22,2780861,314,39.285
C,5,2742842,vowelstep7.wav,None,1000,22,2782861,323,41.285
C,5,2742842,vowelstep5.wav,None,1000,22,2784845,325,43.285
C,5,2742842,sinestep5.wav,None,1000,22,2786861,333,45.285
C,5,2742842,silence.wav,None,1000,22,2788861,314,47.285
C,5,2742842,sinestep5.wav,None,1000,22,2790861,314,49.285
C,5,2742842,sinestep1.wav,None,1000,22,2792861,315,51.285
C,5,2742842,silence.wav,None,1000,22,2794861,320,53.285
C,5,2742842,vowelstep1.wav,None,1000,22,2796862,322,55.285
C,5,2742842,vowelstep1.wav,None,1000,22,2798862,321,57.285
C,5,2742842,sinestep1.wav,None,1000,22,2800845,331,59.285
C,5,2742842,silence.wav,None,1000,22,2802845,332,61.285
C,5,2742842,vowelstep5.wav,None,1000,22,2804861,331,63.285
C,5,2742842,vowelstep3.wav,None,1000,22,2806861,312,65.285
C,5,2742842,vowelstep3.wav,None,1000,22,2808861,312,67.285
C,5,2742842,vowelstep7.wav,None,1000,22,2810861,316,69.285
C,5,2742842,silence.wav,None,1000,22,2812861,323,71.285
C,5,2742842,vowelstep3.wav,None,1000,22,2814862,318,73.285
C,5,2742842,silence.wav,None,1000,22,2816845,332,75.285
C,5,2742842,sinestep5.wav,None,1000,22,2818845,333,77.285
C,5,2742842,vowelstep7.wav,None,1000,22,2820845,332,79.285
C,5,2742842,vowelstep1_catch.wav,1,167,22,2822862,343,81.285
C,5,2742842,vowelstep3.wav,None,1000,22,2824862,1144,83.285
C,5,2742842,sinestep7.wav,None,1000,22,2826862,319,85.285
C,5,2742842,vowelstep3.wav,None,1000,22,2828861,324,87.285
C,5,2742842,sinestep1.wav,None,1000,22,2830862,301,89.285
C,5,2742842,sinestep7.wav,None,1000,22,2832846,311,91.285
C,5,2742842,sinestep7.wav,None,1000,22,2834845,331,93.285
C,5,2742842,sinestep3.wav,None,1000,22,2836845,341,95.285
C,5,2742842,vowelstep3_catch.wav,1,293,22,2838845,340,97.285
C,5,2742842,sinestep5.wav,None,1000,22,2840845,1048,99.285
C,5,2742842,sinestep5.wav,None,1000,22,2842862,318,101.285
C,5,2742842,vowelstep3.wav,None,1000,22,2844862,327,103.285
C,5,2742842,vowelstep5.wav,None,1000,22,2846862,308,105.285
C,5,2742842,sinestep1.wav,None,1000,22,2848846,313,107.285
C,5,2742842,sinestep3.wav,None,1000,22,2850846,333,109.285
C,5,2742842,vowelstep5.wav,None,1000,22,2852846,337,111.285
C,5,2742842,vowelstep7.wav,None,1000,22,2854846,337,113.285
C,5,2742842,vowelstep1.wav,None,1000,22,2856846,348,115.285
C,5,2742842,sinestep7.wav,None,1000,22,2858846,325,117.285
C,5,2742842,sinestep3.wav,None,1000,22,2860862,328,119.285
C,5,2742842,vowelstep1.wav,None,1000,22,2862862,309,121.285
C,5,2742842,vowelstep1.wav,None,1000,22,2864845,303,123.285
C,5,2742842,sinestep3.wav,None,1000,22,2866846,339,125.285
C,5,2742842,silence.wav,None,1000,22,2868846,338,127.285
C,5,2742842,silence.wav,None,1000,22,2870846,348,129.285
C,5,2742842,vowelstep5_catch.wav,1,621,22,2872846,328,131.285
C,5,2742842,vowelstep5.wav,None,1000,22,2874846,704,133.285
C,5,2742842,silence.wav,None,1000,22,2876846,327,135.285
C,5,2742842,sinestep1.wav,None,1000,22,2878862,338,137.285
C,5,2742842,vowelstep7.wav,None,1000,22,2880846,316,139.285
C,5,2742842,sinestep7.wav,None,1000,22,2882846,338,141.285
C,5,2742842,silence.wav,None,1000,22,2884846,334,143.285
C,5,2742842,silence.wav,None,1000,22,2886846,325,145.285
C,5,2742842,sinestep7.wav,None,1000,22,2888846,325,147.285
C,5,2742842,vowelstep1.wav,None,1000,22,2890846,322,149.285
C,5,2742842,vowelstep5.wav,None,1000,22,2892846,325,151.285
C,5,2742842,vowelstep5.wav,None,1000,22,2894846,334,153.285
C,5,2742842,vowelstep7.wav,None,1000,22,2896846,340,155.285
C,5,2742842,sinestep7.wav,None,1000,22,2898846,338,157.285
C,5,2742842,vowelstep1.wav,None,1000,22,2900847,330,159.285
C,5,2742842,vowelstep3.wav,None,1000,22,2902847,327,161.285
C,5,2742842,sinestep5.wav,None,1000,22,2904847,329,163.285
C,5,2742842,sinestep7.wav,None,1000,22,2906847,322,165.285
C,5,2742842,sinestep1.wav,None,1000,22,2908846,339,167.285
C,5,2742842,sinestep7.wav,None,1000,22,2910846,333,169.285
C,5,2742842,sinestep3.wav,None,1000,22,2912846,337,171.285
C,5,2742842,silence.wav,None,1000,22,2914846,317,173.285
C,5,2742842,vowelstep7.wav,None,1000,22,2916846,328,175.285
C,5,2742842,sinestep7.wav,None,1000,22,2918847,326,177.285
C,5,2742842,sinestep5.wav,None,1000,22,2920847,324,179.285
C,5,2742842,vowelstep7.wav,None,1000,22,2922847,336,181.285
C,5,2742842,vowelstep5.wav,None,1000,22,2924847,331,183.285
C,5,2742842,vowelstep3.wav,None,1000,22,2926847,336,185.285
C,5,2742842,vowelstep7_catch.wav,1,124,22,2928847,348,187.285
C,5,2742842,vowelstep3.wav,None,1000,22,2930847,1202,189.285
C,5,2742842,vowelstep5.wav,None,1000,22,2932846,328,191.285
C,5,2742842,vowelstep7.wav,None,1000,22,2934846,323,193.285
C,5,2742842,vowelstep7_catch.wav,1,118,22,2936847,336,195.285
C,5,2742842,vowelstep5_catch.wav,1,257,22,2938847,1214,197.285
C,5,2742842,sinestep5.wav,None,1000,22,2940847,1088,199.285
C,5,2742842,sinestep3.wav,None,1000,22,2942847,346,201.285
C,5,2742842,vowelstep3_catch.wav,1,312,22,2944847,325,203.285
C,5,2742842,vowelstep1_catch.wav,1,208,22,2946847,1014,205.285
C,5,2742842,vowelstep5.wav,None,1000,22,2948847,1117,207.285
C,5,2742842,vowelstep1.wav,None,1000,22,2950847,335,209.285
C,5,2742842,sinestep1_catch.wav,1,884,22,2952847,333,211.285
C,5,2742842,sinestep3_catch.wav,1,218,22,2954848,449,213.285
C,5,2742842,sinestep1.wav,None,1000,22,2956848,1126,215.285
C,5,2742842,vowelstep3.wav,None,1000,22,2958847,324,217.285
C,5,2742842,sinestep3.wav,None,1000,22,2960847,306,219.285
C,5,2742842,vowelstep5.wav,None,1000,22,2962847,324,221.285
C,5,2742842,sinestep7.wav,None,1000,22,2964847,325,223.285
C,5,2742842,sinestep1.wav,None,1000,22,2966847,332,225.285
C,5,2742842,sinestep5_catch.wav,1,128,22,2968847,331,227.285
C,5,2742842,vowelstep7.wav,None,1000,22,2970848,1213,229.285
C,5,2742842,vowelstep3.wav,None,1000,22,2972848,315,231.285
C,5,2742842,silence.wav,None,1000,22,2974848,325,233.285
C,5,2742842,vowelstep1.wav,None,1000,22,2976848,325,235.285
C,5,2742842,sinestep5.wav,None,1000,22,2978848,334,237.285
C,5,2742842,sinestep1.wav,None,1000,22,2980847,330,239.285
C,5,2742842,vowelstep7.wav,None,1000,22,2982847,334,241.285
C,5,2742842,sinestep3.wav,None,1000,22,2984847,341,243.285
C,5,2742842,sinestep3.wav,None,1000,22,2986847,315,245.285
C,5,2742842,sinestep5.wav,None,1000,22,2988848,319,247.285
C,5,2742842,vowelstep3.wav,None,1000,22,2990848,323,249.285
C,5,2742842,sinestep3.wav,None,1000,22,2992848,328,251.285
C,5,2742842,silence.wav,None,1000,22,2994848,332,253.285
C,5,2742842,sinestep3.wav,None,1000,22,2996848,334,255.285
C,5,2742842,vowelstep1.wav,None,1000,22,2998848,331,257.285
C,5,2742842,silence.wav,None,1000,22,3000848,309,259.285
C,5,2742842,vowelstep1.wav,None,1000,22,3002848,321,261.285
C,5,2742842,silence.wav,None,1000,22,3004848,323,263.285
C,5,2742842,sinestep7.wav,None,1000,22,3006848,334,265.285
C,5,2742842,sinestep3.wav,None,1000,22,3008848,333,267.285
C,5,2742842,vowelstep1.wav,None,1000,22,3010848,331,269.285
C,5,2742842,sinestep7.wav,None,1000,22,3012848,333,271.285
C,5,2742842,sinestep7_catch.wav,1,258,22,3014848,342,273.285
C,5,2742842,vowelstep5.wav,None,1000,22,3016848,1083,275.285
C,5,2742842,silence.wav,None,1000,22,3018848,338,277.285
C,5,2742842,silence.wav,None,1000,22,3020848,331,279.285
C,5,2742842,sinestep3.wav,None,1000,22,3022848,328,281.285
C,5,2742842,vowelstep7.wav,None,1000,22,3024849,330,283.285
C,5,2742842,sinestep5.wav,None,1000,22,3026849,331,285.285
C,5,2742842,sinestep5.wav,None,1000,22,3028849,322,287.285
C,5,2742842,vowelstep3.wav,None,1000,22,3030848,339,289.285
C,5,2742842,sinestep3.wav,None,1000,22,3032848,347,291.285
C,5,2742842,silence.wav,None,1000,22,3034848,331,293.285
C,5,2742842,silence.wav,None,1000,22,3036848,330,295.285
C,5,2742842,vowelstep7.wav,None,1000,22,3038848,331,297.285
C,5,2742842,silence.wav,None,1000,22,3040849,331,299.285
C,5,2742842,vowelstep5.wav,None,1000,22,3042849,336,301.285
C,5,2742842,sinestep5.wav,None,1000,22,3044849,341,303.285
C,5,2742842,silence.wav,None,1000,22,3046849,339,305.285
C,5,2742842,silence.wav,None,1000,22,3048849,350,307.285
C,5,2742842,silence.wav,None,1000,22,3050849,326,309.285
C,5,2742842,sinestep7_catch.wav,None,1000,22,3052849,329,311.285
C,5,2742842,sinestep7.wav,None,1000,22,3054848,330,313.285
C,5,2742842,sinestep5_catch.wav,None,1000,22,3056848,339,315.285
C,5,2742842,sinestep5.wav,None,1000,22,3058849,340,317.285
C,5,2742842,sinestep3_catch.wav,1,333,22,3060849,337,319.285
D,6,3116721,sinestep5.wav,None,1000,22,3116733,0,1.285
D,6,3116721,vowelstep1_catch.wav,1,187,22,3118733,333,3.285
D,6,3116721,sinestep7.wav,None,1000,22,3120733,1157,5.285
D,6,3116721,vowelstep3.wav,None,1000,22,3122733,314,7.285
D,6,3116721,vowelstep3_catch.wav,1,282,22,3124733,324,9.285
D,6,3116721,vowelstep5_catch.wav,1,188,22,3126733,1043,11.285
D,6,3116721,sinestep7.wav,None,1000,22,3128734,1138,13.285
D,6,3116721,silence.wav,None,1000,22,3130734,330,15.285
D,6,3116721,vowelstep7_catch.wav,1,20,22,3132734,328,17.285
D,6,3116721,vowelstep7.wav,None,1000,22,3134734,1309,19.285
D,6,3116721,vowelstep3.wav,None,1000,22,3136733,319,21.285
D,6,3116721,vowelstep7_catch.wav,None,1000,22,3138733,317,23.285
D,6,3116721,vowelstep5.wav,None,1000,22,3140733,321,25.285
D,6,3116721,sinestep7.wav,None,1000,22,3142733,320,27.285
D,6,3116721,silence.wav,None,1000,22,3144733,331,29.285
D,6,3116721,vowelstep1.wav,None,1000,22,3146734,331,31.285
D,6,3116721,vowelstep1.wav,None,1000,22,3148734,329,33.285
D,6,3116721,vowelstep7.wav,None,1000,22,3150734,337,35.285
D,6,3116721,vowelstep3.wav,None,1000,22,3152734,314,37.285
D,6,3116721,sinestep3.wav,None,1000,22,3154734,320,39.285
D,6,3116721,sinestep1.wav,None,1000,22,3156734,317,41.285
D,6,3116721,vowelstep1.wav,None,1000,22,3158734,329,43.285
D,6,3116721,vowelstep1.wav,None,1000,22,3160733,328,45.285
D,6,3116721,sinestep7.wav,None,1000,22,3162733,328,47.285
D,6,3116721,sinestep3.wav,None,1000,22,3164734,337,49.285
D,6,3116721,vowelstep5_catch.wav,1,124,22,3166734,317,51.285
D,6,3116721,sinestep7.wav,None,1000,22,3168734,1192,53.285
D,6,3116721,vowelstep5.wav,None,1000,22,3170734,314,55.285
D,6,3116721,sinestep3.wav,None,1000,22,3172734,328,57.285
D,6,3116721,sinestep7.wav,None,1000,22,3174734,324,59.285
D,6,3116721,vowelstep3.wav,None,1000,22,3176734,327,61.285
D,6,3116721,vowelstep3.wav,None,1000,22,3178734,338,63.285
D,6,3116721,vowelstep3_catch.wav,1,92,22,3180735,314,65.285
D,6,3116721,silence.wav,None,1000,22,3182735,1226,67.285
D,6,3116721,vowelstep7.wav,None,1000,22,3184734,309,69.285
D,6,3116721,silence.wav,None,1000,22,3186734,318,71.285
D,6,3116721,sinestep1.wav,None,1000,22,3188734,328,73.285
D,6,3116721,vowelstep5.wav,None,1000,22,3190734,328,75.285
D,6,3116721,vowelstep1.wav,None,1000,22,3192734,340,77.285
D,6,3116721,sinestep7.wav,None,1000,22,3194734,310,79.285
D,6,3116721,vowelstep1.wav,None,1000,22,3196734,321,81.285
D,6,3116721,sinestep7.wav,None,1000,22,3198735,317,83.285
D,6,3116721,vowelstep7.wav,None,1000,22,3200735,328,85.285
D,6,3116721,vowelstep5.wav,None,1000,22,3202735,330,87.285
D,6,3116721,vowelstep1.wav,None,1000,22,3204735,329,89.285
D,6,3116721,sinestep5.wav,None,1000,22,3206735,330,91.285
D,6,3116721,sinestep5.wav,None,1000,22,3208734,311,93.285
D,6,3116721,vowelstep3.wav,None,1000,22,3210734,320,95.285
D,6,3116721,silence.wav,None,1000,22,3212734,314,97.285
D,6,3116721,sinestep1.wav,None,1000,22,3214734,317,99.285
D,6,3116721,sinestep1.wav,None,1000,22,3216735,327,101.285
D,6,3116721,sinestep3.wav,None,1000,22,3218735,328,103.285
D,6,3116721,vowelstep1.wav,None,1000,22,3220735,338,105.285
D,6,3116721,sinestep7.wav,None,1000,22,3222735,319,107.285
D,6,3116721,vowelstep3.wav,None,1000,22,3224735,318,109.285
D,6,3116721,silence.wav,None,1000,22,3226735,318,111.285
D,6,3116721,vowelstep5.wav,None,1000,22,3228735,329,113.285
D,6,3116721,vowelstep1.wav,None,1000,22,3230735,328,115.285
D,6,3116721,vowelstep1_catch.wav,1,100,22,3232735,324,117.285
D,6,3116721,vowelstep7.wav,None,1000,22,3234735,1225,119.285
D,6,3116721,sinestep5.wav,None,1000,22,3236735,307,121.285
D,6,3116721,vowelstep7.wav,None,1000,22,3238735,312,123.285
D,6,3116721,sinestep1.wav,None,1000,22,3240735,318,125.285
D,6,3116721,sinestep1.wav,None,1000,22,3242735,316,127.285
D,6,3116721,vowelstep3.wav,None,1000,22,3244735,328,129.285
D,6,3116721,sinestep1.wav,None,1000,22,3246735,329,131.285
D,6,3116721,silence.wav,None,1000,22,3248735,323,133.285
D,6,3116721,sinestep3.wav,None,1000,22,3250736,337,135.285
D,6,3116721,silence.wav,None,1000,22,3252736,317,137.285
D,6,3116721,vowelstep3.wav,None,1000,22,3254736,313,139.285
D,6,3116721,vowelstep5.wav,None,1000,22,3256736,316,141.285
D,6,3116721,silence.wav,None,1000,22,3258735,326,143.285
D,6,3116721,sinestep5.wav,None,1000,22,3260735,324,145.285
D,6,3116721,sinestep5.wav,None,1000,22,3262735,322,147.285
D,6,3116721,sinestep1.wav,None,1000,22,3264735,305,149.285
D,6,3116721,vowelstep5.wav,None,1000,22,3266735,315,151.285
D,6,3116721,vowelstep5.wav,None,1000,22,3268736,315,153.285
D,6,3116721,sinestep1_catch.wav,None,1000,22,3270736,314,155.285
D,6,3116721,sinestep5.wav,None,1000,22,3272736,323,157.285
D,6,3116721,vowelstep3.wav,None,1000,22,3274736,324,159.285
D,6,3116721,vowelstep7.wav,None,1000,22,3276736,323,161.285
D,6,3116721,vowelstep3.wav,None,1000,22,3278736,333,163.285
D,6,3116721,sinestep3.wav,None,1000,22,3280736,309,165.285
D,6,3116721,sinestep1.wav,None,1000,22,3282735,315,167.285
D,6,3116721,silence.wav,None,1000,22,3284735,308,169.285
D,6,3116721,sinestep1.wav,None,1000,22,3286736,325,171.285
D,6,3116721,vowelstep1.wav,None,1000,22,3288736,319,173.285
D,6,3116721,vowelstep3.wav,None,1000,22,3290736,324,175.285
D,6,3116721,silence.wav,None,1000,22,3292736,334,177.285
D,6,3116721,sinestep7.wav,None,1000,22,3294736,302,179.285
D,6,3116721,silence.wav,None,1000,22,3296736,310,181.285
D,6,3116721,vowelstep7.wav,None,1000,22,3298736,313,183.285
D,6,3116721,sinestep3.wav,None,1000,22,3300736,322,185.285
D,6,3116721,vowelstep1.wav,None,1000,22,3302737,323,187.285
D,6,3116721,sinestep7.wav,None,1000,22,3304737,319,189.285
D,6,3116721,silence.wav,None,1000,22,3306736,330,191.285
D,6,3116721,sinestep1.wav,None,1000,22,3308736,310,193.285
D,6,3116721,sinestep3.wav,None,1000,22,3310736,311,195.285
D,6,3116721,sinestep5.wav,None,1000,22,3312736,307,197.285
D,6,3116721,vowelstep3.wav,None,1000,22,3314736,312,199.285
D,6,3116721,sinestep5.wav,None,1000,22,3316736,317,201.285
D,6,3116721,sinestep5.wav,None,1000,22,3318736,323,203.285
D,6,3116721,sinestep3.wav,None,1000,22,3320737,322,205.285
D,6,3116721,sinestep3.wav,None,1000,22,3322737,296,207.285
D,6,3116721,sinestep5.wav,None,1000,22,3324737,305,209.285
D,6,3116721,sinestep3_catch.wav,None,1000,22,3326737,307,211.285
D,6,3116721,vowelstep7.wav,None,1000,22,3328737,313,213.285
D,6,3116721,sinestep1.wav,None,1000,22,3330736,317,215.285
D,6,3116721,sinestep7.wav,None,1000,22,3332736,316,217.285
D,6,3116721,vowelstep1.wav,None,1000,22,3334736,329,219.285
D,6,3116721,sinestep5.wav,None,1000,22,3336736,331,221.285
D,6,3116721,silence.wav,None,1000,22,3338737,329,223.285
D,6,3116721,sinestep5_catch.wav,1,166,22,3340737,330,225.285
D,6,3116721,sinestep5.wav,None,1000,22,3342737,1149,227.285
D,6,3116721,silence.wav,None,1000,22,3344737,319,229.285
D,6,3116721,vowelstep7.wav,None,1000,22,3346737,319,231.285
D,6,3116721,sinestep3.wav,None,1000,22,3348737,319,233.285
D,6,3116721,vowelstep5.wav,None,1000,22,3350737,330,235.285
D,6,3116721,vowelstep7.wav,None,1000,22,3352737,309,237.285
D,6,3116721,vowelstep5.wav,None,1000,22,3354736,338,239.285
D,6,3116721,silence.wav,None,1000,22,3356737,320,241.285
D,6,3116721,silence.wav,None,1000,22,3358737,320,243.285
D,6,3116721,silence.wav,None,1000,22,3360737,315,245.285
D,6,3116721,sinestep7.wav,None,1000,22,3362737,327,247.285
D,6,3116721,sinestep5.wav,None,1000,22,3364737,329,249.285
D,6,3116721,sinestep7_catch.wav,1,171,22,3366737,328,251.285
D,6,3116721,vowelstep1.wav,None,1000,22,3368737,1158,253.285
D,6,3116721,vowelstep1.wav,None,1000,22,3370737,318,255.285
D,6,3116721,vowelstep3.wav,None,1000,22,3372738,319,257.285
D,6,3116721,silence.wav,None,1000,22,3374738,318,259.285
D,6,3116721,sinestep5.wav,None,1000,22,3376738,313,261.285
D,6,3116721,vowelstep7.wav,None,1000,22,3378738,327,263.285
D,6,3116721,vowelstep3.wav,None,1000,22,3380737,326,265.285
D,6,3116721,vowelstep7.wav,None,1000,22,3382737,324,267.285
D,6,3116721,vowelstep5.wav,None,1000,22,3384737,339,269.285
D,6,3116721,sinestep1.wav,None,1000,22,3386737,314,271.285
D,6,3116721,sinestep7.wav,None,1000,22,3388737,319,273.285
D,6,3116721,sinestep3.wav,None,1000,22,3390738,313,275.285
D,6,3116721,silence.wav,None,1000,22,3392738,326,277.285
D,6,3116721,sinestep7.wav,None,1000,22,3394738,326,279.285
D,6,3116721,vowelstep5.wav,None,1000,22,3396738,319,281.285
D,6,3116721,sinestep1.wav,None,1000,22,3398738,306,283.285
D,6,3116721,vowelstep1.wav,None,1000,22,3400738,311,285.285
D,6,3116721,sinestep1.wav,None,1000,22,3402737,315,287.285
D,6,3116721,vowelstep5.wav,None,1000,22,3404737,315,289.285
D,6,3116721,silence.wav,None,1000,22,3406737,327,291.285
D,6,3116721,sinestep3.wav,None,1000,22,3408738,324,293.285
D,6,3116721,vowelstep5.wav,None,1000,22,3410738,324,295.285
D,6,3116721,silence.wav,None,1000,22,3412738,335,297.285
D,6,3116721,sinestep3.wav,None,1000,22,3414738,314,299.285
D,6,3116721,vowelstep7.wav,None,1000,22,3416738,312,301.285
D,6,3116721,sinestep7_catch.wav,None,1000,22,3418738,316,303.285
D,6,3116721,sinestep5_catch.wav,None,1000,22,3420738,324,305.285
D,6,3116721,sinestep3.wav,None,1000,22,3422738,326,307.285
D,6,3116721,vowelstep5.wav,None,1000,22,3424738,322,309.285
D,6,3116721,silence.wav,None,1000,22,3426739,303,311.285
D,6,3116721,sinestep3_catch.wav,None,1000,22,3428738,313,313.285
D,6,3116721,silence.wav,None,1000,22,3430738,315,315.285
D,6,3116721,vowelstep7.wav,None,1000,22,3432738,310,317.285
D,6,3116721,silence.wav,None,1000,22,3434738,324,319.285
J,7,3494176,sinestep5_catch.wav,1,499,22,3494189,0,1.285
J,7,3494176,sinestep5.wav,None,1000,22,3496190,813,3.285
J,7,3494176,sinestep3.wav,None,1000,22,3498190,315,5.285
J,7,3494176,sinestep1.wav,None,1000,22,3500190,309,7.285
J,7,3494176,sinestep7.wav,None,1000,22,3502189,325,9.285
J,7,3494176,vowelstep3.wav,None,1000,22,3504189,321,11.285
J,7,3494176,sinestep1.wav,None,1000,22,3506189,325,13.285
J,7,3494176,vowelstep5.wav,None,1000,22,3508189,304,15.285
J,7,3494176,vowelstep3.wav,None,1000,22,3510189,314,17.285
J,7,3494176,vowelstep1.wav,None,1000,22,3512189,315,19.285
J,7,3494176,vowelstep1.wav,None,1000,22,3514190,311,21.285
J,7,3494176,sinestep3.wav,None,1000,22,3516190,325,23.285
J,7,3494176,silence.wav,None,1000,22,3518190,322,25.285
J,7,3494176,vowelstep7.wav,None,1000,22,3520190,324,27.285
J,7,3494176,sinestep3.wav,None,1000,22,3522190,330,29.285
J,7,3494176,sinestep7.wav,None,1000,22,3524190,315,31.285
J,7,3494176,silence.wav,None,1000,22,3526189,313,33.285
J,7,3494176,vowelstep5.wav,None,1000,22,3528189,314,35.285
J,7,3494176,sinestep1.wav,None,1000,22,3530190,320,37.285
J,7,3494176,sinestep1_catch.wav,1,135,22,3532190,325,39.285
J,7,3494176,sinestep7.wav,None,1000,22,3534190,1195,41.285
J,7,3494176,vowelstep7.wav,None,1000,22,3536190,329,43.285
J,7,3494176,sinestep3_catch.wav,1,125,22,3538190,312,45.285
J,7,3494176,vowelstep3.wav,None,1000,22,3540190,1187,47.285
J,7,3494176,vowelstep7.wav,None,1000,22,3542190,312,49.285
J,7,3494176,sinestep1.wav,None,1000,22,3544190,322,51.285
J,7,3494176,vowelstep3.wav,None,1000,22,3546190,320,53.285
J,7,3494176,vowelstep1.wav,None,1000,22,3548191,324,55.285
J,7,3494176,sinestep5.wav,None,1000,22,3550190,326,57.285
J,7,3494176,sinestep5_catch.wav,1,202,22,3552190,311,59.285
J,7,3494176,sinestep5.wav,None,1000,22,3554190,1110,61.285
J,7,3494176,vowelstep7.wav,None,1000,22,3556190,306,63.285
J,7,3494176,sinestep7.wav,None,1000,22,3558190,314,65.285
J,7,3494176,vowelstep1.wav,None,1000,22,3560190,319,67.285
J,7,3494176,sinestep7_catch.wav,1,98,22,3562190,318,69.285
J,7,3494176,silence.wav,None,1000,22,3564190,1232,71.285
J,7,3494176,vowelstep5.wav,None,1000,22,3566191,301,73.285
J,7,3494176,sinestep5.wav,None,1000,22,3568191,309,75.285
J,7,3494176,sinestep5.wav,None,1000,22,3570191,304,77.285
J,7,3494176,vowelstep3.wav,None,1000,22,3572191,308,79.285
J,7,3494176,vowelstep5.wav,None,1000,22,3574190,320,81.285
J,7,3494176,sinestep3.wav,None,1000,22,3576190,320,83.285
J,7,3494176,silence.wav,None,1000,22,3578190,326,85.285
J,7,3494176,vowelstep3.wav,None,1000,22,3580190,329,87.285
J,7,3494176,vowelstep7.wav,None,1000,22,3582190,309,89.285
J,7,3494176,silence.wav,None,1000,22,3584191,328,91.285
J,7,3494176,sinestep3.wav,None,1000,22,3586191,312,93.285
J,7,3494176,silence.wav,None,1000,22,3588191,315,95.285
J,7,3494176,sinestep1.wav,None,1000,22,3590191,316,97.285
J,7,3494176,sinestep5_catch.wav,1,99,22,3592191,319,99.285
J,7,3494176,sinestep7.wav,None,1000,22,3594191,1225,101.285
J,7,3494176,sinestep5.wav,None,1000,22,3596191,328,103.285
J,7,3494176,sinestep5.wav,None,1000,22,3598190,308,105.285
J,7,3494176,sinestep3.wav,None,1000,22,3600191,315,107.285
J,7,3494176,sinestep3_catch.wav,1,102,22,3602191,318,109.285
J,7,3494176,sinestep3.wav,None,1000,22,3604191,1215,111.285
J,7,3494176,silence.wav,None,1000,22,3606191,327,113.285
J,7,3494176,sinestep1.wav,None,1000,22,3608191,324,115.285
J,7,3494176,silence.wav,None,1000,22,3610191,325,117.285
J,7,3494176,vowelstep3.wav,None,1000,22,3612191,325,119.285
J,7,3494176,vowelstep5.wav,None,1000,22,3614191,317,121.285
J,7,3494176,vowelstep7.wav,None,1000,22,3616191,317,123.285
J,7,3494176,silence.wav,None,1000,22,3618192,318,125.285
J,7,3494176,sinestep1.wav,None,1000,22,3620192,315,127.285
J,7,3494176,sinestep3.wav,None,1000,22,3622191,327,129.285
J,7,3494176,sinestep7.wav,None,1000,22,3624191,323,131.285
J,7,3494176,silence.wav,None,1000,22,3626191,336,133.285
J,7,3494176,sinestep1.wav,None,1000,22,3628191,316,135.285
J,7,3494176,vowelstep7.wav,None,1000,22,3630191,317,137.285
J,7,3494176,sinestep5.wav,None,1000,22,3632191,317,139.285
J,7,3494176,vowelstep1.wav,None,1000,22,3634191,315,141.285
J,7,3494176,vowelstep7.wav,None,1000,22,3636192,326,143.285
J,7,3494176,vowelstep3.wav,None,1000,22,3638192,326,145.285
J,7,3494176,vowelstep3.wav,None,1000,22,3640192,326,147.285
J,7,3494176,sinestep7.wav,None,1000,22,3642192,301,149.285
J,7,3494176,vowelstep5.wav,None,1000,22,3644192,314,151.285
J,7,3494176,silence.wav,None,1000,22,3646192,314,153.285
J,7,3494176,sinestep1.wav,None,1000,22,3648191,315,155.285
J,7,3494176,sinestep3.wav,None,1000,22,3650191,318,157.285
J,7,3494176,silence.wav,None,1000,22,3652191,322,159.285
J,7,3494176,sinestep1.wav,None,1000,22,3654192,322,161.285
J,7,3494176,vowelstep7.wav,None,1000,22,3656192,333,163.285
J,7,3494176,vowelstep7.wav,None,1000,22,3658192,311,165.285
J,7,3494176,sinestep1_catch.wav,1,328,22,3660192,313,167.285
J,7,3494176,vowelstep1_catch.wav,1,929,22,3662192,984,169.285
J,7,3494176,vowelstep1.wav,None,1000,22,3664192,394,171.285
J,7,3494176,vowelstep7.wav,None,1000,22,3666192,323,173.285
J,7,3494176,sinestep1.wav,None,1000,22,3668192,323,175.285
J,7,3494176,vowelstep5.wav,None,1000,22,3670193,302,177.285
J,7,3494176,vowelstep5.wav,None,1000,22,3672192,314,179.285
J,7,3494176,sinestep5.wav,None,1000,22,3674192,309,181.285
J,7,3494176,sinestep7.wav,None,1000,22,3676192,309,183.285
J,7,3494176,sinestep7.wav,None,1000,22,3678192,321,185.285
J,7,3494176,sinestep1.wav,None,1000,22,3680192,320,187.285
J,7,3494176,vowelstep1.wav,None,1000,22,3682192,323,189.285
J,7,3494176,silence.wav,None,1000,22,3684192,331,191.285
J,7,3494176,sinestep5.wav,None,1000,22,3686192,312,193.285
J,7,3494176,vowelstep5.wav,None,1000,22,3688193,313,195.285
J,7,3494176,vowelstep1.wav,None,1000,22,3690193,307,197.285
J,7,3494176,vowelstep1.wav,None,1000,22,3692193,320,199.285
J,7,3494176,sinestep3.wav,None,1000,22,3694193,320,201.285
J,7,3494176,sinestep3.wav,None,1000,22,3696192,322,203.285
J,7,3494176,silence.wav,None,1000,22,3698192,330,205.285
J,7,3494176,sinestep5.wav,None,1000,22,3700192,313,207.285
J,7,3494176,vowelstep1.wav,None,1000,22,3702192,313,209.285
J,7,3494176,vowelstep5.wav,None,1000,22,3704192,313,211.285
J,7,3494176,vowelstep3.wav,None,1000,22,3706193,317,213.285
J,7,3494176,vowelstep3.wav,None,1000,22,3708193,320,215.285
J,7,3494176,silence.wav,None,1000,22,3710193,319,217.285
J,7,3494176,sinestep1.wav,None,1000,22,3712193,330,219.285
J,7,3494176,vowelstep3.wav,None,1000,22,3714193,312,221.285
J,7,3494176,sinestep7.wav,None,1000,22,3716193,309,223.285
J,7,3494176,vowelstep7.wav,None,1000,22,3718193,310,225.285
J,7,3494176,silence.wav,None,1000,22,3720192,311,227.285
J,7,3494176,vowelstep5.wav,None,1000,22,3722192,316,229.285
J,7,3494176,silence.wav,None,1000,22,3724193,319,231.285
J,7,3494176,sinestep3.wav,None,1000,22,3726193,318,233.285
J,7,3494176,vowelstep5.wav,None,1000,22,3728193,328,235.285
J,7,3494176,vowelstep3.wav,None,1000,22,3730193,310,237.285
J,7,3494176,vowelstep5.wav,None,1000,22,3732193,307,239.285
J,7,3494176,vowelstep7.wav,None,1000,22,3734193,310,241.285
J,7,3494176,vowelstep1.wav,None,1000,22,3736193,318,243.285
J,7,3494176,sinestep7.wav,None,1000,22,3738193,315,245.285
J,7,3494176,sinestep7.wav,None,1000,22,3740194,317,247.285
J,7,3494176,silence.wav,None,1000,22,3742194,297,249.285
J,7,3494176,vowelstep1.wav,None,1000,22,3744194,306,251.285
J,7,3494176,vowelstep3_catch.wav,1,165,22,3746193,310,253.285
J,7,3494176,vowelstep1.wav,None,1000,22,3748193,1142,255.285
J,7,3494176,vowelstep5_catch.wav,1,46,22,3750193,320,257.285
J,7,3494176,silence.wav,None,1000,22,3752193,1274,259.285
J,7,3494176,sinestep5.wav,None,1000,22,3754193,316,261.285
J,7,3494176,vowelstep1.wav,None,1000,22,3756193,331,263.285
J,7,3494176,sinestep5.wav,None,1000,22,3758194,308,265.285
J,7,3494176,vowelstep3.wav,None,1000,22,3760194,303,267.285
J,7,3494176,sinestep5.wav,None,1000,22,3762194,307,269.285
J,7,3494176,sinestep7.wav,None,1000,22,3764194,317,271.285
J,7,3494176,silence.wav,None,1000,22,3766194,319,273.285
J,7,3494176,vowelstep7_catch.wav,None,1000,22,3768194,316,275.285
J,7,3494176,sinestep3.wav,None,1000,22,3770193,299,277.285
J,7,3494176,vowelstep5.wav,None,1000,22,3772193,305,279.285
J,7,3494176,silence.wav,None,1000,22,3774193,307,281.285
J,7,3494176,silence.wav,None,1000,22,3776194,313,283.285
J,7,3494176,silence.wav,None,1000,22,3778194,316,285.285
J,7,3494176,vowelstep7.wav,None,1000,22,3780194,317,287.285
J,7,3494176,sinestep3.wav,None,1000,22,3782194,318,289.285
J,7,3494176,vowelstep5_catch.wav,1,222,22,3784194,295,291.285
J,7,3494176,silence.wav,None,1000,22,3786194,1081,293.285
J,7,3494176,sinestep7.wav,None,1000,22,3788194,307,295.285
J,7,3494176,vowelstep1.wav,None,1000,22,3790194,307,297.285
J,7,3494176,silence.wav,None,1000,22,3792194,317,299.285
J,7,3494176,sinestep1.wav,None,1000,22,3794194,315,301.285
J,7,3494176,sinestep5.wav,1,439,22,3796194,317,303.285
J,7,3494176,vowelstep5.wav,None,1000,22,3798194,887,305.285
J,7,3494176,vowelstep3.wav,None,1000,22,3800194,306,307.285
J,7,3494176,sinestep7.wav,None,1000,22,3802194,307,309.285
J,7,3494176,vowelstep7.wav,None,1000,22,3804194,304,311.285
J,7,3494176,vowelstep3_catch.wav,None,1000,22,3806194,307,313.285
J,7,3494176,vowelstep1_catch.wav,None,1000,22,3808194,312,315.285
J,7,3494176,sinestep3.wav,None,1000,22,3810195,315,317.285
J,7,3494176,sinestep1.wav,None,1000,22,3812195,316,319.285
I,8,3869111,vowelstep7.wav,None,1000,22,3869129,0,1.285
I,8,3869111,sinestep1_catch.wav,1,158,22,3871129,304,3.285
I,8,3869111,sinestep3.wav,None,1000,22,3873129,1147,5.285
I,8,3869111,silence.wav,None,1000,22,3875128,307,7.285
I,8,3869111,vowelstep7.wav,None,1000,22,3877128,307,9.285
I,8,3869111,sinestep3_catch.wav,1,136,22,3879128,317,11.285
I,8,3869111,vowelstep3.wav,None,1000,22,3881129,1181,13.285
I,8,3869111,vowelstep3.wav,None,1000,22,3883129,327,15.285
I,8,3869111,silence.wav,None,1000,22,3885129,326,17.285
I,8,3869111,vowelstep1.wav,None,1000,22,3887129,307,19.285
I,8,3869111,vowelstep5.wav,None,1000,22,3889129,303,21.285
I,8,3869111,vowelstep7.wav,None,1000,22,3891129,316,23.285
I,8,3869111,sinestep1.wav,None,1000,22,3893129,312,25.285
I,8,3869111,vowelstep1.wav,None,1000,22,3895129,315,27.285
I,8,3869111,sinestep5_catch.wav,1,871,22,3897129,315,29.285
I,8,3869111,sinestep5.wav,None,1000,22,3899129,425,31.285
I,8,3869111,vowelstep1.wav,None,1000,22,3901129,325,33.285
I,8,3869111,sinestep7.wav,None,1000,22,3903129,326,35.285
I,8,3869111,vowelstep3.wav,None,1000,22,3905129,333,37.285
I,8,3869111,vowelstep1.wav,None,1000,22,3907129,315,39.285
I,8,3869111,vowelstep1.wav,None,1000,22,3909129,311,41.285
I,8,3869111,sinestep3.wav,None,1000,22,3911129,315,43.285
I,8,3869111,sinestep5.wav,None,1000,22,3913129,328,45.285
I,8,3869111,sinestep5.wav,None,1000,22,3915130,324,47.285
I,8,3869111,vowelstep3.wav,None,1000,22,3917130,325,49.285
I,8,3869111,silence.wav,None,1000,22,3919130,335,51.285
I,8,3869111,sinestep7_catch.wav,None,1000,22,3921130,312,53.285
I,8,3869111,silence.wav,None,1000,22,3923129,317,55.285
I,8,3869111,sinestep1.wav,None,1000,22,3925129,313,57.285
I,8,3869111,vowelstep1.wav,None,1000,22,3927129,321,59.285
I,8,3869111,sinestep1.wav,None,1000,22,3929129,324,61.285
I,8,3869111,sinestep1.wav,None,1000,22,3931129,324,63.285
I,8,3869111,vowelstep7.wav,None,1000,22,3933130,334,65.285
I,8,3869111,sinestep5.wav,None,1000,22,3935130,310,67.285
I,8,3869111,sinestep5_catch.wav,1,45,22,3937130,313,69.285
I,8,3869111,vowelstep7.wav,None,1000,22,3939130,1267,71.285
I,8,3869111,vowelstep5.wav,None,1000,22,3941130,323,73.285
I,8,3869111,sinestep3.wav,None,1000,22,3943130,325,75.285
I,8,3869111,vowelstep1.wav,None,1000,22,3945130,334,77.285
I,8,3869111,sinestep3.wav,None,1000,22,3947129,335,79.285
I,8,3869111,sinestep5.wav,None,1000,22,3949129,302,81.285
I,8,3869111,sinestep5.wav,None,1000,22,3951130,312,83.285
I,8,3869111,vowelstep5.wav,None,1000,22,3953130,320,85.285
I,8,3869111,vowelstep7.wav,None,1000,22,3955130,324,87.285
I,8,3869111,sinestep3.wav,None,1000,22,3957130,318,89.285
I,8,3869111,vowelstep3.wav,None,1000,22,3959130,322,91.285
I,8,3869111,sinestep3.wav,None,1000,22,3961130,332,93.285
I,8,3869111,vowelstep5.wav,None,1000,22,3963130,314,95.285
I,8,3869111,sinestep7.wav,None,1000,22,3965130,311,97.285
I,8,3869111,sinestep3_catch.wav,1,474,22,3967131,313,99.285
I,8,3869111,sinestep1_catch.wav,1,373,22,3969131,844,101.285
I,8,3869111,vowelstep3.wav,None,1000,22,3971130,949,103.285
I,8,3869111,vowelstep3.wav,None,1000,22,3973130,318,105.285
I,8,3869111,vowelstep5.wav,None,1000,22,3975114,331,107.285
I,8,3869111,sinestep5.wav,None,1000,22,3977130,331,109.285
I,8,3869111,vowelstep5.wav,None,1000,22,3979130,312,111.285
I,8,3869111,vowelstep5.wav,None,1000,22,3981130,309,113.285
I,8,3869111,vowelstep1.wav,None,1000,22,3983130,322,115.285
I,8,3869111,vowelstep1_catch.wav,1,261,22,3985131,317,117.285
I,8,3869111,sinestep7.wav,None,1000,22,3987131,1059,119.285
I,8,3869111,vowelstep3.wav,None,1000,22,3989131,301,121.285
I,8,3869111,sinestep7.wav,None,1000,22,3991114,311,123.285
I,8,3869111,sinestep7.wav,None,1000,22,3993114,326,125.285
I,8,3869111,vowelstep7.wav,None,1000,22,3995114,328,127.285
I,8,3869111,vowelstep3.wav,None,1000,22,3997130,337,129.285
I,8,3869111,sinestep5.wav,None,1000,22,3999130,320,131.285
I,8,3869111,sinestep5.wav,None,1000,22,4001130,314,133.285
I,8,3869111,vowelstep3.wav,None,1000,22,4003131,317,135.285
I,8,3869111,sinestep5.wav,None,1000,22,4005131,305,137.285
I,8,3869111,sinestep1.wav,None,1000,22,4007114,310,139.285
I,8,3869111,vowelstep7.wav,None,1000,22,4009114,333,141.285
I,8,3869111,silence.wav,None,1000,22,4011114,337,143.285
I,8,3869111,vowelstep7.wav,None,1000,22,4013114,334,145.285
I,8,3869111,silence.wav,None,1000,22,4015131,334,147.285
I,8,3869111,sinestep1.wav,None,1000,22,4017131,320,149.285
I,8,3869111,vowelstep1.wav,None,1000,22,4019131,301,151.285
I,8,3869111,vowelstep3.wav,None,1000,22,4021131,307,153.285
I,8,3869111,silence.wav,None,1000,22,4023115,312,155.285
I,8,3869111,silence.wav,None,1000,22,4025115,343,157.285
I,8,3869111,vowelstep1.wav,None,1000,22,4027114,345,159.285
I,8,3869111,sinestep1.wav,None,1000,22,4029114,345,161.285
I,8,3869111,vowelstep3_catch.wav,None,1000,22,4031114,325,163.285
I,8,3869111,sinestep1.wav,None,1000,22,4033131,332,165.285
I,8,3869111,vowelstep5.wav,None,1000,22,4035131,312,167.285
I,8,3869111,vowelstep5_catch.wav,1,188,22,4037115,312,169.285
I,8,3869111,sinestep1.wav,None,1000,22,4039115,1153,171.285
I,8,3869111,silence.wav,None,1000,22,4041115,344,173.285
I,8,3869111,vowelstep5.wav,None,1000,22,4043115,342,175.285
I,8,3869111,sinestep3.wav,None,1000,22,4045115,323,177.285
I,8,3869111,sinestep3.wav,None,1000,22,4047115,335,179.285
I,8,3869111,silence.wav,None,1000,22,4049115,332,181.285
I,8,3869111,silence.wav,None,1000,22,4051131,335,183.285
I,8,3869111,vowelstep3.wav,None,1000,22,4053131,313,185.285
I,8,3869111,vowelstep7.wav,None,1000,22,4055115,323,187.285
I,8,3869111,vowelstep7.wav,None,1000,22,4057115,336,189.285
I,8,3869111,silence.wav,None,1000,22,4059115,354,191.285
I,8,3869111,sinestep3.wav,None,1000,22,4061115,333,193.285
I,8,3869111,sinestep3.wav,None,1000,22,4063115,333,195.285
I,8,3869111,vowelstep5.wav,None,1000,22,4065115,329,197.285
I,8,3869111,vowelstep1.wav,None,1000,22,4067115,342,199.285
I,8,3869111,vowelstep1.wav,None,1000,22,4069115,338,201.285
I,8,3869111,sinestep5.wav,None,1000,22,4071115,343,203.285
I,8,3869111,silence.wav,None,1000,22,4073116,345,205.285
I,8,3869111,sinestep5.wav,None,1000,22,4075116,328,207.285
I,8,3869111,sinestep7.wav,None,1000,22,4077115,329,209.285
I,8,3869111,sinestep1.wav,None,1000,22,4079115,330,211.285
I,8,3869111,sinestep5.wav,None,1000,22,4081115,341,213.285
I,8,3869111,vowelstep5.wav,None,1000,22,4083115,341,215.285
I,8,3869111,sinestep7.wav,None,1000,22,4085115,341,217.285
I,8,3869111,sinestep5.wav,None,1000,22,4087115,347,219.285
I,8,3869111,sinestep3.wav,None,1000,22,4089115,330,221.285
I,8,3869111,silence.wav,None,1000,22,4091116,329,223.285
I,8,3869111,vowelstep7_catch.wav,1,178,22,4093116,331,225.285
I,8,3869111,sinestep7.wav,None,1000,22,4095116,1162,227.285
I,8,3869111,sinestep7.wav,None,1000,22,4097116,338,229.285
I,8,3869111,sinestep3.wav,None,1000,22,4099116,339,231.285
I,8,3869111,vowelstep3.wav,None,1000,22,4101115,348,233.285
I,8,3869111,silence.wav,None,1000,22,4103115,318,235.285
I,8,3869111,sinestep3.wav,None,1000,22,4105115,329,237.285
I,8,3869111,sinestep5.wav,None,1000,22,4107116,329,239.285
I,8,3869111,silence.wav,None,1000,22,4109116,338,241.285
I,8,3869111,vowelstep3.wav,None,1000,22,4111116,338,243.285
I,8,3869111,sinestep1.wav,None,1000,22,4113116,335,245.285
I,8,3869111,sinestep1.wav,None,1000,22,4115116,338,247.285
I,8,3869111,sinestep7.wav,None,1000,22,4117116,321,249.285
I,8,3869111,vowelstep7.wav,None,1000,22,4119116,330,251.285
I,8,3869111,vowelstep5.wav,None,1000,22,4121116,328,253.285
I,8,3869111,silence.wav,None,1000,22,4123116,339,255.285
I,8,3869111,sinestep3.wav,None,1000,22,4125116,339,257.285
I,8,3869111,vowelstep1.wav,None,1000,22,4127116,339,259.285
I,8,3869111,vowelstep1.wav,None,1000,22,4129116,339,261.285
I,8,3869111,silence.wav,None,1000,22,4131116,325,263.285
I,8,3869111,vowelstep3.wav,None,1000,22,4133116,328,265.285
I,8,3869111,silence.wav,None,1000,22,4135116,323,267.285
I,8,3869111,silence.wav,None,1000,22,4137116,327,269.285
I,8,3869111,sinestep7.wav,None,1000,22,4139116,336,271.285
I,8,3869111,sinestep7.wav,None,1000,22,4141116,337,273.285
I,8,3869111,vowelstep5.wav,None,1000,22,4143117,338,275.285
I,8,3869111,silence.wav,None,1000,22,4145117,313,277.285
I,8,3869111,silence.wav,None,1000,22,4147117,327,279.285
I,8,3869111,sinestep1.wav,None,1000,22,4149117,323,281.285
I,8,3869111,silence.wav,None,1000,22,4151116,326,283.285
I,8,3869111,vowelstep7.wav,None,1000,22,4153116,337,285.285
I,8,3869111,vowelstep5_catch.wav,1,973,22,4155116,337,287.285
I,8,3869111,sinestep7.wav,None,1000,22,4157116,365,289.285
I,8,3869111,sinestep1.wav,None,1000,22,4159116,328,291.285
I,8,3869111,vowelstep3_catch.wav,1,143,22,4161117,326,293.285
I,8,3869111,sinestep1.wav,None,1000,22,4163117,1183,295.285
I,8,3869111,vowelstep7.wav,None,1000,22,4165117,328,297.285
I,8,3869111,sinestep3.wav,None,1000,22,4167117,328,299.285
I,8,3869111,vowelstep5.wav,None,1000,22,4169117,338,301.285
I,8,3869111,vowelstep1_catch.wav,1,471,22,4171117,337,303.285
I,8,3869111,vowelstep7.wav,None,1000,22,4173117,845,305.285
I,8,3869111,vowelstep5.wav,None,1000,22,4175116,326,307.285
I,8,3869111,sinestep1_catch.wav,1,230,22,4177117,323,309.285
I,8,3869111,silence.wav,None,1000,22,4179117,1096,311.285
I,8,3869111,sinestep7.wav,None,1000,22,4181117,334,313.285
I,8,3869111,silence.wav,None,1000,22,4183117,332,315.285
I,8,3869111,vowelstep1.wav,None,1000,22,4185117,335,317.285
I,8,3869111,sinestep7.wav,None,1000,22,4187117,335,319.285
A,9,4242232,sinestep5_catch.wav,1,117,22,4242251,0,1.285
A,9,4242232,vowelstep1.wav,None,1000,22,4244251,1198,3.285
A,9,4242232,vowelstep3.wav,None,1000,22,4246251,320,5.285
A,9,4242232,sinestep1.wav,None,1000,22,4248252,322,7.285
A,9,4242232,sinestep5_catch.wav,1,61,22,4250252,332,9.285
A,9,4242232,sinestep7.wav,None,1000,22,4252235,1249,11.285
A,9,4242232,sinestep3.wav,None,1000,22,4254235,331,13.285
A,9,4242232,silence.wav,None,1000,22,4256235,342,15.285
A,9,4242232,vowelstep7.wav,None,1000,22,4258251,342,17.285
A,9,4242232,sinestep7.wav,None,1000,22,4260251,322,19.285
A,9,4242232,vowelstep5_catch.wav,1,43,22,4262251,322,21.285
A,9,4242232,sinestep7.wav,None,1000,22,4264251,1256,23.285
A,9,4242232,sinestep3.wav,None,1000,22,4266252,310,25.285
A,9,4242232,silence.wav,None,1000,22,4268235,308,27.285
A,9,4242232,sinestep3.wav,None,1000,22,4270235,331,29.285
A,9,4242232,sinestep5_catch.wav,1,76,22,4272235,339,31.285
A,9,4242232,sinestep1.wav,None,1000,22,4274252,1260,33.285
A,9,4242232,sinestep1.wav,None,1000,22,4276252,321,35.285
A,9,4242232,sinestep5.wav,None,1000,22,4278252,326,37.285
A,9,4242232,vowelstep3.wav,None,1000,22,4280251,311,39.285
A,9,4242232,vowelstep5.wav,None,1000,22,4282252,305,41.285
A,9,4242232,vowelstep3.wav,None,1000,22,4284236,310,43.285
A,9,4242232,vowelstep1.wav,None,1000,22,4286236,333,45.285
A,9,4242232,vowelstep3.wav,None,1000,22,4288235,335,47.285
A,9,4242232,sinestep3.wav,None,1000,22,4290235,337,49.285
A,9,4242232,sinestep7.wav,None,1000,22,4292235,327,51.285
A,9,4242232,sinestep5.wav,None,1000,22,4294252,323,53.285
A,9,4242232,vowelstep7_catch.wav,1,240,22,4296252,307,55.285
A,9,4242232,silence.wav,None,1000,22,4298252,1067,57.285
A,9,4242232,vowelstep3.wav,None,1000,22,4300236,316,59.285
A,9,4242232,vowelstep1.wav,None,1000,22,4302236,339,61.285
A,9,4242232,silence.wav,None,1000,22,4304236,347,63.285
A,9,4242232,sinestep3.wav,None,1000,22,4306236,318,65.285
A,9,4242232,sinestep7.wav,None,1000,22,4308236,328,67.285
A,9,4242232,sinestep5.wav,None,1000,22,4310236,325,69.285
A,9,4242232,sinestep5.wav,None,1000,22,4312252,337,71.285
A,9,4242232,sinestep7.wav,None,1000,22,4314252,333,73.285
A,9,4242232,sinestep1.wav,None,1000,22,4316235,316,75.285
A,9,4242232,sinestep5.wav,None,1000,22,4318236,337,77.285
A,9,4242232,vowelstep1.wav,None,1000,22,4320236,325,79.285
A,9,4242232,sinestep1.wav,None,1000,22,4322236,326,81.285
A,9,4242232,vowelstep5.wav,None,1000,22,4324236,326,83.285
A,9,4242232,sinestep1.wav,None,1000,22,4326236,323,85.285
A,9,4242232,silence.wav,None,1000,22,4328236,337,87.285
A,9,4242232,vowelstep1.wav,None,1000,22,4330252,333,89.285
A,9,4242232,sinestep3.wav,None,1000,22,4332236,318,91.285
A,9,4242232,vowelstep5.wav,None,1000,22,4334237,321,93.285
A,9,4242232,vowelstep5.wav,None,1000,22,4336236,324,95.285
A,9,4242232,vowelstep5.wav,None,1000,22,4338236,323,97.285
A,9,4242232,vowelstep7.wav,None,1000,22,4340236,324,99.285
A,9,4242232,vowelstep3.wav,None,1000,22,4342236,332,101.285
A,9,4242232,sinestep1.wav,None,1000,22,4344236,333,103.285
A,9,4242232,sinestep1.wav,None,1000,22,4346236,330,105.285
A,9,4242232,vowelstep7.wav,None,1000,22,4348236,315,107.285
A,9,4242232,vowelstep1.wav,None,1000,22,4350236,316,109.285
A,9,4242232,vowelstep7.wav,None,1000,22,4352237,319,111.285
A,9,4242232,silence.wav,None,1000,22,4354237,320,113.285
A,9,4242232,sinestep1.wav,None,1000,22,4356237,331,115.285
A,9,4242232,vowelstep1.wav,None,1000,22,4358237,326,117.285
A,9,4242232,silence.wav,None,1000,22,4360236,329,119.285
A,9,4242232,vowelstep1.wav,None,1000,22,4362236,329,121.285
A,9,4242232,vowelstep3.wav,None,1000,22,4364236,319,123.285
A,9,4242232,vowelstep1.wav,None,1000,22,4366236,321,125.285
A,9,4242232,sinestep7.wav,None,1000,22,4368236,313,127.285
A,9,4242232,silence.wav,None,1000,22,4370237,328,129.285
A,9,4242232,vowelstep1.wav,None,1000,22,4372237,327,131.285
A,9,4242232,silence.wav,None,1000,22,4374237,326,133.285
A,9,4242232,sinestep7.wav,None,1000,22,4376237,303,135.285
A,9,4242232,vowelstep5.wav,None,1000,22,4378237,316,137.285
A,9,4242232,sinestep7.wav,None,1000,22,4380237,313,139.285
A,9,4242232,sinestep3.wav,None,1000,22,4382237,318,141.285
A,9,4242232,vowelstep5.wav,None,1000,22,4384236,326,143.285
A,9,4242232,silence.wav,None,1000,22,4386236,328,145.285
A,9,4242232,sinestep3.wav,None,1000,22,4388237,328,147.285
A,9,4242232,sinestep5.wav,None,1000,22,4390237,334,149.285
A,9,4242232,sinestep3.wav,None,1000,22,4392237,337,151.285
A,9,4242232,vowelstep3.wav,None,1000,22,4394237,333,153.285
A,9,4242232,sinestep3.wav,None,1000,22,4396237,316,155.285
A,9,4242232,vowelstep7_catch.wav,1,102,22,4398237,318,157.285
A,9,4242232,vowelstep7.wav,None,1000,22,4400237,1220,159.285
A,9,4242232,vowelstep5.wav,None,1000,22,4402237,327,161.285
A,9,4242232,sinestep5.wav,None,1000,22,4404238,334,163.285
A,9,4242232,silence.wav,None,1000,22,4406238,306,165.285
A,9,4242232,sinestep5.wav,None,1000,22,4408238,312,167.285
A,9,4242232,vowelstep5_catch.wav,1,159,22,4410237,315,169.285
A,9,4242232,silence.wav,None,1000,22,4412237,1154,171.285
A,9,4242232,sinestep7.wav,None,1000,22,4414237,327,173.285
A,9,4242232,sinestep5.wav,None,1000,22,4416237,329,175.285
A,9,4242232,sinestep7.wav,None,1000,22,4418237,338,177.285
A,9,4242232,vowelstep3.wav,None,1000,22,4420237,338,179.285
A,9,4242232,sinestep5.wav,None,1000,22,4422238,335,181.285
A,9,4242232,vowelstep1.wav,None,1000,22,4424238,336,183.285
A,9,4242232,vowelstep5.wav,None,1000,22,4426238,327,185.285
A,9,4242232,sinestep5.wav,None,1000,22,4428238,328,187.285
A,9,4242232,vowelstep1.wav,None,1000,22,4430238,326,189.285
A,9,4242232,silence.wav,None,1000,22,4432238,337,191.285
A,9,4242232,sinestep1.wav,None,1000,22,4434237,337,193.285
A,9,4242232,vowelstep5.wav,None,1000,22,4436237,337,195.285
A,9,4242232,sinestep3.wav,None,1000,22,4438237,334,197.285
A,9,4242232,silence.wav,None,1000,22,4440238,328,199.285
A,9,4242232,vowelstep3.wav,None,1000,22,4442238,325,201.285
A,9,4242232,vowelstep3_catch.wav,1,184,22,4444238,323,203.285
A,9,4242232,vowelstep5.wav,None,1000,22,4446238,1141,205.285
A,9,4242232,vowelstep1_catch.wav,1,178,22,4448238,335,207.285
A,9,4242232,silence.wav,None,1000,22,4450238,1157,209.285
A,9,4242232,sinestep3.wav,None,1000,22,4452238,335,211.285
A,9,4242232,vowelstep5.wav,None,1000,22,4454238,322,213.285
A,9,4242232,silence.wav,None,1000,22,4456238,323,215.285
A,9,4242232,sinestep5.wav,None,1000,22,4458238,324,217.285
A,9,4242232,vowelstep7.wav,None,1000,22,4460238,323,219.285
A,9,4242232,silence.wav,None,1000,22,4462238,334,221.285
A,9,4242232,vowelstep3.wav,None,1000,22,4464238,334,223.285
A,9,4242232,sinestep7.wav,None,1000,22,4466238,344,225.285
A,9,4242232,silence.wav,None,1000,22,4468238,345,227.285
A,9,4242232,vowelstep3.wav,None,1000,22,4470238,322,229.285
A,9,4242232,vowelstep5.wav,None,1000,22,4472238,324,231.285
A,9,4242232,vowelstep7.wav,None,1000,22,4474239,324,233.285
A,9,4242232,vowelstep3.wav,None,1000,22,4476239,333,235.285
A,9,4242232,vowelstep5.wav,None,1000,22,4478239,333,237.285
A,9,4242232,sinestep1_catch.wav,1,123,22,4480239,333,239.285
A,9,4242232,sinestep3.wav,None,1000,22,4482238,1219,241.285
A,9,4242232,sinestep1.wav,None,1000,22,4484238,323,243.285
A,9,4242232,sinestep3_catch.wav,1,119,22,4486238,319,245.285
A,9,4242232,sinestep7.wav,None,1000,22,4488238,1204,247.285
A,9,4242232,vowelstep1.wav,None,1000,22,4490238,328,249.285
A,9,4242232,sinestep3.wav,None,1000,22,4492239,333,251.285
A,9,4242232,vowelstep7.wav,None,1000,22,4494239,332,253.285
A,9,4242232,silence.wav,None,1000,22,4496239,340,255.285
A,9,4242232,sinestep1.wav,None,1000,22,4498239,318,257.285
A,9,4242232,silence.wav,None,1000,22,4500239,322,259.285
A,9,4242232,vowelstep5.wav,None,1000,22,4502239,316,261.285
A,9,4242232,sinestep5_catch.wav,1,75,22,4504239,332,263.285
A,9,4242232,vowelstep7.wav,None,1000,22,4506238,1254,265.285
A,9,4242232,sinestep3.wav,None,1000,22,4508238,328,267.285
A,9,4242232,vowelstep1.wav,None,1000,22,4510239,309,269.285
A,9,4242232,vowelstep3.wav,None,1000,22,4512239,317,271.285
A,9,4242232,sinestep7_catch.wav,1,176,22,4514239,318,273.285
A,9,4242232,silence.wav,None,1000,22,4516239,1144,275.285
A,9,4242232,vowelstep7.wav,None,1000,22,4518239,326,277.285
A,9,4242232,sinestep7.wav,None,1000,22,4520239,329,279.285
A,9,4242232,sinestep1.wav,None,1000,22,4522239,325,281.285
A,9,4242232,vowelstep7.wav,None,1000,22,4524239,328,283.285
A,9,4242232,sinestep5.wav,None,1000,22,4526239,320,285.285
A,9,4242232,sinestep5.wav,None,1000,22,4528240,317,287.285
A,9,4242232,sinestep7_catch.wav,1,83,22,4530239,318,289.285
A,9,4242232,sinestep5.wav,None,1000,22,4532239,1245,291.285
A,9,4242232,silence.wav,None,1000,22,4534239,325,293.285
A,9,4242232,vowelstep3.wav,None,1000,22,4536239,327,295.285
A,9,4242232,silence.wav,None,1000,22,4538239,338,297.285
A,9,4242232,vowelstep1.wav,None,1000,22,4540239,318,299.285
A,9,4242232,sinestep1.wav,None,1000,22,4542239,317,301.285
A,9,4242232,sinestep7.wav,None,1000,22,4544240,318,303.285
A,9,4242232,vowelstep7.wav,None,1000,22,4546240,327,305.285
A,9,4242232,sinestep1_catch.wav,1,164,22,4548240,325,307.285
A,9,4242232,silence.wav,None,1000,22,4550240,1158,309.285
A,9,4242232,silence.wav,None,1000,22,4552240,336,311.285
A,9,4242232,vowelstep7.wav,None,1000,22,4554240,306,313.285
A,9,4242232,sinestep1.wav,None,1000,22,4556239,315,315.285
A,9,4242232,vowelstep7.wav,None,1000,22,4558239,316,317.285
A,9,4242232,vowelstep7.wav,None,1000,22,4560239,315,319.285