block,count_main_sequence,first_trial_timestamp,fname,response_catch_response,response_time_catch_response,subject_nr,time_stimulus,time_to_pad,timing
P,NA,254139,vowelstep1_catch.wav,None,1000,31,254150,0,
P,NA,254139,sinestep7_catch.wav,None,1000,31,256150,449,
P,NA,254139,vowelstep5_catch.wav,None,1000,31,258150,433,
P,NA,254139,sinestep7.wav,None,1000,31,260150,432,
P,NA,254139,sinestep7.wav,None,1000,31,262151,432,
P,NA,254139,sinestep3.wav,None,1000,31,264151,444,
P,NA,254139,sinestep1.wav,None,1000,31,266151,442,
P,NA,254139,vowelstep7.wav,None,1000,31,268151,442,
P,NA,254139,vowelstep3.wav,None,1000,31,270151,451,
P,NA,254139,silence.wav,None,1000,31,272151,432,
P,NA,254139,sinestep1.wav,None,1000,31,274150,432,
P,NA,254139,vowelstep1.wav,None,1000,31,276150,432,
P,NA,254139,sinestep5.wav,None,1000,31,278150,441,
P,NA,254139,sinestep1.wav,None,1000,31,280151,441,
P,NA,254139,sinestep1.wav,None,1000,31,282151,441,
P,NA,254139,vowelstep1.wav,None,1000,31,284151,451,
P,NA,254139,silence.wav,None,1000,31,286151,421,
P,NA,254139,silence.wav,None,1000,31,288151,431,
P,NA,254139,silence.wav,None,1000,31,290151,431,
P,NA,254139,sinestep3_catch.wav,1,346,31,292151,441,
P,NA,254139,vowelstep7.wav,None,1000,31,294151,1095,
P,NA,254139,silence.wav,None,1000,31,296150,442,
P,NA,254139,vowelstep7.wav,None,1000,31,298151,452,
P,NA,254139,vowelstep3.wav,None,1000,31,300151,450,
P,NA,254139,silence.wav,None,1000,31,302151,430,
P,NA,254139,vowelstep1.wav,None,1000,31,304151,430,
P,NA,254139,sinestep3.wav,None,1000,31,306151,430,
P,NA,254139,vowelstep1.wav,None,1000,31,308151,439,
P,NA,254139,silence.wav,None,1000,31,310151,440,
P,NA,254139,sinestep7.wav,None,1000,31,312151,449,
P,NA,254139,sinestep5_catch.wav,1,347,31,314151,419,
P,NA,254139,silence.wav,None,1000,31,316152,1081,
P,NA,254139,sinestep7.wav,None,1000,31,318152,429,
P,NA,254139,sinestep5.wav,None,1000,31,320151,438,
P,NA,254139,sinestep3.wav,None,1000,31,322151,438,
P,NA,254139,sinestep1_catch.wav,1,349,31,324151,439,
P,NA,254139,vowelstep3_catch.wav,1,430,31,326151,1089,
P,NA,254139,vowelstep5_catch.wav,1,385,31,328151,1019,
P,NA,254139,vowelstep7.wav,None,1000,31,330151,1042,
P,NA,254139,silence.wav,None,1000,31,332152,429,
P,NA,254139,vowelstep7_catch.wav,1,249,31,334152,437,
P,NA,254139,vowelstep3.wav,None,1000,31,336152,1188,
P,NA,254139,silence.wav,None,1000,31,338152,437,
P,NA,254139,sinestep7_catch.wav,1,288,31,340152,447,
P,NA,254139,sinestep7.wav,None,1000,31,342152,1159,
P,NA,254139,vowelstep5.wav,None,1000,31,344151,428,
P,NA,254139,vowelstep3.wav,None,1000,31,346151,448,
P,NA,254139,sinestep5.wav,None,1000,31,348151,427,
P,NA,254139,sinestep5_catch.wav,1,280,31,350152,437,
P,NA,254139,sinestep3.wav,None,1000,31,352152,1156,
P,NA,254139,silence.wav,None,1000,31,354152,437,
P,NA,254139,vowelstep7.wav,None,1000,31,356152,447,
P,NA,254139,sinestep3_catch.wav,1,317,31,358152,446,
P,NA,254139,vowelstep5.wav,None,1000,31,360152,1129,
P,NA,254139,silence.wav,None,1000,31,362152,458,
P,NA,254139,sinestep1.wav,None,1000,31,364152,437,
P,NA,254139,vowelstep1.wav,None,1000,31,366152,436,
P,NA,254139,silence.wav,None,1000,31,368152,436,
P,NA,254139,silence.wav,None,1000,31,370152,445,
P,NA,254139,silence.wav,None,1000,31,372152,445,
P,NA,254139,sinestep1_catch.wav,1,329,31,374152,445,
P,NA,254139,sinestep1.wav,None,1000,31,376152,1096,
P,NA,254139,silence.wav,None,1000,31,378152,435,
P,NA,254139,vowelstep1_catch.wav,1,418,31,380152,436,
P,NA,254139,vowelstep5.wav,None,1000,31,382152,1016,
P,NA,254139,sinestep5.wav,None,1000,31,384152,447,
P,NA,254139,vowelstep3.wav,None,1000,31,386153,446,
P,NA,254139,silence.wav,None,1000,31,388153,444,
P,NA,254139,silence.wav,None,1000,31,390153,441,
P,NA,254139,sinestep7.wav,None,1000,31,392152,434,
P,NA,254139,vowelstep5.wav,None,1000,31,394152,434,
P,NA,254139,silence.wav,None,1000,31,396152,433,
P,NA,254139,vowelstep3_catch.wav,1,343,31,398152,444,
P,NA,254139,silence.wav,None,1000,31,400152,1099,
P,NA,254139,vowelstep5.wav,None,1000,31,402153,444,
P,NA,254139,vowelstep5_catch.wav,1,423,31,404153,453,
P,NA,254139,vowelstep7_catch.wav,1,292,31,406153,1000,
P,NA,254139,sinestep3.wav,None,1000,31,408153,1141,
P,NA,254139,vowelstep5.wav,None,1000,31,410153,433,
P,NA,254139,vowelstep3.wav,None,1000,31,412153,444,
P,NA,254139,silence.wav,None,1000,31,414153,443,
P,NA,254139,sinestep3.wav,None,1000,31,416152,443,
P,NA,254139,silence.wav,None,1000,31,418152,443,
P,NA,254139,sinestep7_catch.wav,1,458,31,420153,433,
P,NA,254139,sinestep5_catch.wav,1,217,31,422153,972,
P,NA,254139,sinestep5.wav,None,1000,31,424153,1214,
P,NA,254139,sinestep5.wav,None,1000,31,426153,442,
P,NA,254139,vowelstep7.wav,None,1000,31,428153,441,
P,NA,254139,sinestep3_catch.wav,1,339,31,430153,442,
P,NA,254139,vowelstep1.wav,None,1000,31,432153,1103,
C,0,844803,sinestep1.wav,None,1000,31,844809,0,1.285
C,0,844803,vowelstep1.wav,None,1000,31,846809,336,3.285
C,0,844803,sinestep1.wav,None,1000,31,848809,337,5.285
C,0,844803,sinestep1.wav,None,1000,31,850809,336,7.285
C,0,844803,vowelstep1.wav,None,1000,31,852809,346,9.285
C,0,844803,sinestep1.wav,None,1000,31,854809,350,11.285
C,0,844803,sinestep7.wav,None,1000,31,856810,349,13.285
C,0,844803,vowelstep7.wav,None,1000,31,858810,360,15.285
C,0,844803,vowelstep3.wav,None,1000,31,860810,341,17.285
C,0,844803,vowelstep5.wav,None,1000,31,862810,340,19.285
C,0,844803,silence.wav,None,1000,31,864809,342,21.285
C,0,844803,sinestep3.wav,None,1000,31,866809,339,23.285
C,0,844803,vowelstep5.wav,None,1000,31,868809,350,25.285
C,0,844803,sinestep1.wav,None,1000,31,870809,350,27.285
C,0,844803,vowelstep1.wav,None,1000,31,872809,357,29.285
C,0,844803,vowelstep7.wav,None,1000,31,874810,332,31.285
C,0,844803,vowelstep3.wav,None,1000,31,876810,337,33.285
C,0,844803,sinestep1.wav,None,1000,31,878810,339,35.285
C,0,844803,sinestep5.wav,None,1000,31,880810,349,37.285
C,0,844803,silence.wav,None,1000,31,882810,349,39.285
C,0,844803,vowelstep7.wav,None,1000,31,884810,349,41.285
C,0,844803,vowelstep5.wav,None,1000,31,886810,348,43.285
C,0,844803,sinestep5.wav,None,1000,31,888809,336,45.285
C,0,844803,silence.wav,None,1000,31,890809,339,47.285
C,0,844803,sinestep5.wav,None,1000,31,892810,336,49.285
C,0,844803,sinestep1.wav,None,1000,31,894810,348,51.285
C,0,844803,silence.wav,None,1000,31,896810,343,53.285
C,0,844803,vowelstep1.wav,None,1000,31,898810,348,55.285
C,0,844803,vowelstep1.wav,None,1000,31,900810,358,57.285
C,0,844803,sinestep1.wav,None,1000,31,902810,325,59.285
C,0,844803,silence.wav,None,1000,31,904810,334,61.285
C,0,844803,vowelstep5.wav,None,1000,31,906810,332,63.285
C,0,844803,vowelstep3.wav,None,1000,31,908811,343,65.285
C,0,844803,vowelstep3.wav,None,1000,31,910811,343,67.285
C,0,844803,vowelstep7.wav,None,1000,31,912810,342,69.285
C,0,844803,silence.wav,None,1000,31,914810,352,71.285
C,0,844803,vowelstep3.wav,None,1000,31,916810,323,73.285
C,0,844803,silence.wav,None,1000,31,918810,337,75.285
C,0,844803,sinestep5.wav,None,1000,31,920810,336,77.285
C,0,844803,vowelstep7.wav,None,1000,31,922810,346,79.285
C,0,844803,vowelstep1_catch.wav,1,213,31,924810,347,81.285
C,0,844803,vowelstep3.wav,None,1000,31,926811,1132,83.285
C,0,844803,sinestep7.wav,None,1000,31,928811,346,85.285
C,0,844803,vowelstep3.wav,None,1000,31,930811,356,87.285
C,0,844803,sinestep1.wav,None,1000,31,932811,336,89.285
C,0,844803,sinestep7.wav,None,1000,31,934810,336,91.285
C,0,844803,sinestep7.wav,None,1000,31,936810,333,93.285
C,0,844803,sinestep3.wav,None,1000,31,938810,346,95.285
C,0,844803,vowelstep3_catch.wav,1,135,31,940810,344,97.285
C,0,844803,sinestep5.wav,None,1000,31,942810,1210,99.285
C,0,844803,sinestep5.wav,None,1000,31,944811,324,101.285
C,0,844803,vowelstep3.wav,None,1000,31,946811,335,103.285
C,0,844803,vowelstep5.wav,None,1000,31,948811,335,105.285
C,0,844803,sinestep1.wav,None,1000,31,950811,345,107.285
C,0,844803,sinestep3.wav,None,1000,31,952811,342,109.285
C,0,844803,vowelstep5.wav,None,1000,31,954811,345,111.285
C,0,844803,vowelstep7.wav,None,1000,31,956811,344,113.285
C,0,844803,vowelstep1.wav,None,1000,31,958810,324,115.285
C,0,844803,sinestep7.wav,None,1000,31,960810,335,117.285
C,0,844803,sinestep3.wav,None,1000,31,962811,334,119.285
C,0,844803,vowelstep1.wav,None,1000,31,964811,334,121.285
C,0,844803,vowelstep1.wav,None,1000,31,966811,340,123.285
C,0,844803,sinestep3.wav,None,1000,31,968811,340,125.285
C,0,844803,silence.wav,None,1000,31,970811,343,127.285
C,0,844803,silence.wav,None,1000,31,972811,352,129.285
C,0,844803,vowelstep5_catch.wav,1,300,31,974811,330,131.285
C,0,844803,vowelstep5.wav,None,1000,31,976811,1029,133.285
C,0,844803,silence.wav,None,1000,31,978812,329,135.285
C,0,844803,sinestep1.wav,None,1000,31,980812,338,137.285
C,0,844803,vowelstep7.wav,None,1000,31,982811,342,139.285
C,0,844803,sinestep7.wav,None,1000,31,984811,341,141.285
C,0,844803,silence.wav,None,1000,31,986811,324,143.285
C,0,844803,silence.wav,None,1000,31,988811,333,145.285
C,0,844803,sinestep7.wav,None,1000,31,990811,334,147.285
C,0,844803,vowelstep1.wav,None,1000,31,992811,334,149.285
C,0,844803,vowelstep5.wav,None,1000,31,994811,333,151.285
C,0,844803,vowelstep5.wav,None,1000,31,996812,343,153.285
C,0,844803,vowelstep7.wav,None,1000,31,998812,343,155.285
C,0,844803,sinestep7.wav,None,1000,31,1000812,350,157.285
C,0,844803,vowelstep1.wav,None,1000,31,1002812,334,159.285
C,0,844803,vowelstep3.wav,None,1000,31,1004812,331,161.285
C,0,844803,sinestep5.wav,None,1000,31,1006811,333,163.285
C,0,844803,sinestep7.wav,None,1000,31,1008811,332,165.285
C,0,844803,sinestep1.wav,None,1000,31,1010811,343,167.285
C,0,844803,sinestep7.wav,None,1000,31,1012811,342,169.285
C,0,844803,sinestep3.wav,None,1000,31,1014812,353,171.285
C,0,844803,silence.wav,None,1000,31,1016812,348,173.285
C,0,844803,vowelstep7.wav,None,1000,31,1018812,331,175.285
C,0,844803,sinestep7.wav,None,1000,31,1020812,330,177.285
C,0,844803,sinestep5.wav,None,1000,31,1022812,331,179.285
C,0,844803,vowelstep7.wav,None,1000,31,1024812,341,181.285
C,0,844803,vowelstep5.wav,None,1000,31,1026812,342,183.285
C,0,844803,vowelstep3.wav,None,1000,31,1028812,341,185.285
C,0,844803,vowelstep7_catch.wav,1,277,31,1030811,348,187.285
C,0,844803,vowelstep3.wav,None,1000,31,1032812,1050,189.285
C,0,844803,vowelstep5.wav,None,1000,31,1034812,330,191.285
C,0,844803,vowelstep7.wav,None,1000,31,1036812,327,193.285
C,0,844803,vowelstep7_catch.wav,1,227,31,1038812,338,195.285
C,0,844803,vowelstep5_catch.wav,1,269,31,1040812,1109,197.285
C,0,844803,sinestep5.wav,None,1000,31,1042812,1079,199.285
C,0,844803,sinestep3.wav,None,1000,31,1044812,340,201.285
C,0,844803,vowelstep3_catch.wav,1,182,31,1046812,322,203.285
C,0,844803,vowelstep1_catch.wav,1,268,31,1048813,1146,205.285
C,0,844803,vowelstep5.wav,None,1000,31,1050813,1070,207.285
C,0,844803,vowelstep1.wav,None,1000,31,1052812,340,209.285
C,0,844803,sinestep1_catch.wav,1,121,31,1054812,339,211.285
C,0,844803,sinestep3_catch.wav,1,199,31,1056812,1218,213.285
C,0,844803,sinestep1.wav,None,1000,31,1058812,1150,215.285
C,0,844803,vowelstep3.wav,None,1000,31,1060812,349,217.285
C,0,844803,sinestep3.wav,None,1000,31,1062812,331,219.285
C,0,844803,vowelstep5.wav,None,1000,31,1064812,359,221.285
C,0,844803,sinestep7.wav,None,1000,31,1066813,339,223.285
C,0,844803,sinestep1.wav,None,1000,31,1068813,339,225.285
C,0,844803,sinestep5_catch.wav,1,106,31,1070813,338,227.285
C,0,844803,vowelstep7.wav,None,1000,31,1072813,1241,229.285
C,0,844803,vowelstep3.wav,None,1000,31,1074813,349,231.285
C,0,844803,silence.wav,None,1000,31,1076812,348,233.285
C,0,844803,vowelstep1.wav,None,1000,31,1078812,350,235.285
C,0,844803,sinestep5.wav,None,1000,31,1080812,335,237.285
C,0,844803,sinestep1.wav,None,1000,31,1082812,339,239.285
C,0,844803,vowelstep7.wav,None,1000,31,1084813,337,241.285
C,0,844803,sinestep3.wav,None,1000,31,1086813,337,243.285
C,0,844803,sinestep3.wav,None,1000,31,1088813,348,245.285
C,0,844803,sinestep5.wav,None,1000,31,1090813,347,247.285
C,0,844803,vowelstep3.wav,None,1000,31,1092813,348,249.285
C,0,844803,sinestep3.wav,None,1000,31,1094813,334,251.285
C,0,844803,silence.wav,None,1000,31,1096813,334,253.285
C,0,844803,sinestep3.wav,None,1000,31,1098813,337,255.285
C,0,844803,vowelstep1.wav,None,1000,31,1100812,332,257.285
C,0,844803,silence.wav,None,1000,31,1102813,343,259.285
C,0,844803,vowelstep1.wav,None,1000,31,1104813,342,261.285
C,0,844803,silence.wav,None,1000,31,1106813,342,263.285
C,0,844803,sinestep7.wav,None,1000,31,1108813,322,265.285
C,0,844803,sinestep3.wav,None,1000,31,1110813,337,267.285
C,0,844803,vowelstep1.wav,None,1000,31,1112813,335,269.285
C,0,844803,sinestep7.wav,None,1000,31,1114813,345,271.285
C,0,844803,sinestep7_catch.wav,1,246,31,1116813,346,273.285
C,0,844803,vowelstep5.wav,None,1000,31,1118814,1099,275.285
C,0,844803,silence.wav,None,1000,31,1120814,345,277.285
C,0,844803,silence.wav,None,1000,31,1122814,325,279.285
C,0,844803,sinestep3.wav,None,1000,31,1124813,336,281.285
C,0,844803,vowelstep7.wav,None,1000,31,1126813,337,283.285
C,0,844803,sinestep5.wav,None,1000,31,1128813,332,285.285
C,0,844803,sinestep5.wav,None,1000,31,1130813,345,287.285
C,0,844803,vowelstep3.wav,None,1000,31,1132813,344,289.285
C,0,844803,sinestep3.wav,None,1000,31,1134813,345,291.285
C,0,844803,silence.wav,None,1000,31,1136814,325,293.285
C,0,844803,silence.wav,None,1000,31,1138814,334,295.285
C,0,844803,vowelstep7.wav,None,1000,31,1140814,334,297.285
C,0,844803,silence.wav,None,1000,31,1142814,344,299.285
C,0,844803,vowelstep5.wav,None,1000,31,1144814,341,301.285
C,0,844803,sinestep5.wav,None,1000,31,1146814,344,303.285
C,0,844803,silence.wav,None,1000,31,1148813,344,305.285
C,0,844803,silence.wav,None,1000,31,1150813,324,307.285
C,0,844803,silence.wav,None,1000,31,1152813,334,309.285
C,0,844803,sinestep7_catch.wav,1,349,31,1154814,334,311.285
C,0,844803,sinestep7.wav,None,1000,31,1156814,982,313.285
C,0,844803,sinestep5_catch.wav,1,264,31,1158814,339,315.285
C,0,844803,sinestep5.wav,None,1000,31,1160814,1075,317.285
C,0,844803,sinestep3_catch.wav,1,263,31,1162814,342,319.285
H,1,1229173,sinestep3.wav,None,1000,31,1229182,0,1.285
H,1,1229173,sinestep7.wav,None,1000,31,1231182,335,3.285
H,1,1229173,sinestep3.wav,None,1000,31,1233182,335,5.285
H,1,1229173,vowelstep3.wav,None,1000,31,1235181,334,7.285
H,1,1229173,vowelstep1.wav,None,1000,31,1237181,344,9.285
H,1,1229173,sinestep7.wav,None,1000,31,1239181,346,11.285
H,1,1229173,vowelstep3.wav,None,1000,31,1241182,348,13.285
H,1,1229173,silence.wav,None,1000,31,1243182,279,15.285
H,1,1229173,vowelstep1.wav,None,1000,31,1245182,338,17.285
H,1,1229173,sinestep5.wav,None,1000,31,1247182,340,19.285
H,1,1229173,sinestep7.wav,None,1000,31,1249182,339,21.285
H,1,1229173,vowelstep7.wav,None,1000,31,1251182,344,23.285
H,1,1229173,vowelstep1_catch.wav,1,333,31,1253182,347,25.285
H,1,1229173,sinestep5.wav,None,1000,31,1255182,1014,27.285
H,1,1229173,vowelstep5.wav,None,1000,31,1257182,355,29.285
H,1,1229173,silence.wav,None,1000,31,1259182,338,31.285
H,1,1229173,vowelstep3_catch.wav,1,428,31,1261182,335,33.285
H,1,1229173,sinestep7.wav,None,1000,31,1263182,907,35.285
H,1,1229173,sinestep5.wav,None,1000,31,1265182,346,37.285
H,1,1229173,silence.wav,None,1000,31,1267182,347,39.285
H,1,1229173,vowelstep3.wav,None,1000,31,1269182,346,41.285
H,1,1229173,vowelstep1.wav,None,1000,31,1271182,357,43.285
H,1,1229173,vowelstep1.wav,None,1000,31,1273182,332,45.285
H,1,1229173,vowelstep3.wav,None,1000,31,1275182,337,47.285
H,1,1229173,sinestep3.wav,None,1000,31,1277183,335,49.285
H,1,1229173,vowelstep1.wav,None,1000,31,1279183,345,51.285
H,1,1229173,sinestep7.wav,None,1000,31,1281182,345,53.285
H,1,1229173,vowelstep7.wav,None,1000,31,1283182,345,55.285
H,1,1229173,vowelstep5_catch.wav,1,400,31,1285182,345,57.285
H,1,1229173,vowelstep5.wav,None,1000,31,1287182,921,59.285
H,1,1229173,vowelstep3.wav,None,1000,31,1289182,333,61.285
H,1,1229173,vowelstep7_catch.wav,1,316,31,1291182,332,63.285
H,1,1229173,sinestep3.wav,None,1000,31,1293182,1029,65.285
H,1,1229173,sinestep1.wav,None,1000,31,1295183,342,67.285
H,1,1229173,sinestep7.wav,None,1000,31,1297183,342,69.285
H,1,1229173,silence.wav,None,1000,31,1299183,340,71.285
H,1,1229173,vowelstep1.wav,None,1000,31,1301183,326,73.285
H,1,1229173,vowelstep7.wav,None,1000,31,1303183,332,75.285
H,1,1229173,sinestep7.wav,None,1000,31,1305182,330,77.285
H,1,1229173,sinestep1.wav,None,1000,31,1307182,332,79.285
H,1,1229173,sinestep7.wav,None,1000,31,1309182,298,81.285
H,1,1229173,sinestep1.wav,None,1000,31,1311183,343,83.285
H,1,1229173,vowelstep5.wav,None,1000,31,1313183,343,85.285
H,1,1229173,sinestep3.wav,None,1000,31,1315183,323,87.285
H,1,1229173,vowelstep5.wav,None,1000,31,1317183,332,89.285
H,1,1229173,silence.wav,None,1000,31,1319183,240,91.285
H,1,1229173,silence.wav,None,1000,31,1321183,335,93.285
H,1,1229173,sinestep5.wav,None,1000,31,1323183,344,95.285
H,1,1229173,sinestep3.wav,None,1000,31,1325183,342,97.285
H,1,1229173,sinestep7.wav,None,1000,31,1327183,344,99.285
H,1,1229173,sinestep7_catch.wav,1,209,31,1329183,332,101.285
H,1,1229173,silence.wav,None,1000,31,1331183,1123,103.285
H,1,1229173,sinestep3.wav,None,1000,31,1333183,332,105.285
H,1,1229173,silence.wav,None,1000,31,1335183,331,107.285
H,1,1229173,vowelstep1.wav,None,1000,31,1337183,339,109.285
H,1,1229173,vowelstep7.wav,None,1000,31,1339183,343,111.285
H,1,1229173,sinestep5.wav,None,1000,31,1341183,341,113.285
H,1,1229173,silence.wav,None,1000,31,1343183,354,115.285
H,1,1229173,vowelstep7.wav,None,1000,31,1345183,332,117.285
H,1,1229173,vowelstep3.wav,None,1000,31,1347184,331,119.285
H,1,1229173,sinestep5.wav,None,1000,31,1349184,332,121.285
H,1,1229173,sinestep1.wav,None,1000,31,1351184,338,123.285
H,1,1229173,vowelstep3.wav,None,1000,31,1353183,338,125.285
H,1,1229173,vowelstep3.wav,None,1000,31,1355183,338,127.285
H,1,1229173,vowelstep5.wav,None,1000,31,1357183,322,129.285
H,1,1229173,vowelstep1.wav,None,1000,31,1359183,325,131.285
H,1,1229173,vowelstep7.wav,None,1000,31,1361183,327,133.285
H,1,1229173,vowelstep3.wav,None,1000,31,1363183,326,135.285
H,1,1229173,vowelstep5.wav,None,1000,31,1365184,337,137.285
H,1,1229173,vowelstep5.wav,None,1000,31,1367184,341,139.285
H,1,1229173,sinestep7.wav,None,1000,31,1369184,339,141.285
H,1,1229173,vowelstep1.wav,None,1000,31,1371184,341,143.285
H,1,1229173,sinestep3.wav,None,1000,31,1373184,321,145.285
H,1,1229173,sinestep1.wav,None,1000,31,1375183,329,147.285
H,1,1229173,vowelstep1.wav,None,1000,31,1377183,329,149.285
H,1,1229173,sinestep5_catch.wav,1,175,31,1379183,328,151.285
H,1,1229173,sinestep7.wav,None,1000,31,1381184,1165,153.285
H,1,1229173,sinestep3_catch.wav,1,179,31,1383184,340,155.285
H,1,1229173,sinestep7.wav,None,1000,31,1385184,1167,157.285
H,1,1229173,sinestep5.wav,None,1000,31,1387184,321,159.285
H,1,1229173,silence.wav,None,1000,31,1389184,327,161.285
H,1,1229173,sinestep1_catch.wav,1,386,31,1391184,329,163.285
H,1,1229173,vowelstep7.wav,None,1000,31,1393184,951,165.285
H,1,1229173,vowelstep7.wav,None,1000,31,1395184,340,167.285
H,1,1229173,sinestep7.wav,None,1000,31,1397184,340,169.285
H,1,1229173,sinestep3.wav,None,1000,31,1399184,340,171.285
H,1,1229173,sinestep5.wav,None,1000,31,1401184,278,173.285
H,1,1229173,vowelstep1_catch.wav,1,191,31,1403184,317,175.285
H,1,1229173,vowelstep1.wav,None,1000,31,1405184,1136,177.285
H,1,1229173,sinestep3.wav,None,1000,31,1407184,327,179.285
H,1,1229173,sinestep3.wav,None,1000,31,1409184,338,181.285
H,1,1229173,vowelstep5.wav,None,1000,31,1411184,339,183.285
H,1,1229173,sinestep1.wav,None,1000,31,1413184,348,185.285
H,1,1229173,sinestep1.wav,None,1000,31,1415184,318,187.285
H,1,1229173,vowelstep7.wav,None,1000,31,1417185,326,189.285
H,1,1229173,sinestep1.wav,None,1000,31,1419185,326,191.285
H,1,1229173,sinestep5.wav,None,1000,31,1421185,333,193.285
H,1,1229173,vowelstep3_catch.wav,1,247,31,1423184,335,195.285
H,1,1229173,sinestep1.wav,None,1000,31,1425184,1086,197.285
H,1,1229173,silence.wav,None,1000,31,1427184,345,199.285
H,1,1229173,vowelstep1.wav,None,1000,31,1429184,315,201.285
H,1,1229173,vowelstep5_catch.wav,1,460,31,1431184,326,203.285
H,1,1229173,sinestep5.wav,None,1000,31,1433184,860,205.285
H,1,1229173,sinestep1.wav,None,1000,31,1435185,337,207.285
H,1,1229173,silence.wav,None,1000,31,1437185,333,209.285
H,1,1229173,sinestep3.wav,None,1000,31,1439185,336,211.285
H,1,1229173,silence.wav,None,1000,31,1441185,334,213.285
H,1,1229173,vowelstep7_catch.wav,1,454,31,1443185,347,215.285
H,1,1229173,vowelstep5.wav,None,1000,31,1445185,867,217.285
H,1,1229173,sinestep7.wav,None,1000,31,1447184,328,219.285
H,1,1229173,silence.wav,None,1000,31,1449184,322,221.285
H,1,1229173,sinestep1.wav,None,1000,31,1451185,336,223.285
H,1,1229173,silence.wav,None,1000,31,1453185,332,225.285
H,1,1229173,silence.wav,None,1000,31,1455185,335,227.285
H,1,1229173,silence.wav,None,1000,31,1457185,346,229.285
H,1,1229173,silence.wav,None,1000,31,1459185,342,231.285
H,1,1229173,sinestep5.wav,None,1000,31,1461185,326,233.285
H,1,1229173,silence.wav,None,1000,31,1463185,354,235.285
H,1,1229173,vowelstep3.wav,None,1000,31,1465185,337,237.285
H,1,1229173,silence.wav,None,1000,31,1467185,333,239.285
H,1,1229173,silence.wav,None,1000,31,1469185,336,241.285
H,1,1229173,vowelstep1_catch.wav,1,316,31,1471185,346,243.285
H,1,1229173,vowelstep5.wav,None,1000,31,1473185,1028,245.285
H,1,1229173,vowelstep7.wav,None,1000,31,1475185,344,247.285
H,1,1229173,vowelstep3_catch.wav,1,420,31,1477185,326,249.285
H,1,1229173,vowelstep1.wav,None,1000,31,1479185,909,251.285
H,1,1229173,sinestep3.wav,None,1000,31,1481185,334,253.285
H,1,1229173,vowelstep5_catch.wav,1,425,31,1483185,332,255.285
H,1,1229173,vowelstep5.wav,None,1000,31,1485185,918,257.285
H,1,1229173,silence.wav,None,1000,31,1487186,342,259.285
H,1,1229173,vowelstep7.wav,None,1000,31,1489186,342,261.285
H,1,1229173,sinestep5.wav,None,1000,31,1491186,322,263.285
H,1,1229173,vowelstep5.wav,None,1000,31,1493185,331,265.285
H,1,1229173,vowelstep7.wav,None,1000,31,1495185,326,267.285
H,1,1229173,vowelstep3.wav,None,1000,31,1497185,330,269.285
H,1,1229173,vowelstep3.wav,None,1000,31,1499185,344,271.285
H,1,1229173,silence.wav,None,1000,31,1501185,343,273.285
H,1,1229173,vowelstep3.wav,None,1000,31,1503186,344,275.285
H,1,1229173,sinestep1.wav,None,1000,31,1505186,352,277.285
H,1,1229173,silence.wav,None,1000,31,1507186,327,279.285
H,1,1229173,sinestep1.wav,None,1000,31,1509186,331,281.285
H,1,1229173,vowelstep3.wav,None,1000,31,1511186,330,283.285
H,1,1229173,silence.wav,None,1000,31,1513186,331,285.285
H,1,1229173,vowelstep5.wav,None,1000,31,1515186,342,287.285
H,1,1229173,vowelstep5.wav,None,1000,31,1517185,342,289.285
H,1,1229173,vowelstep1.wav,None,1000,31,1519185,353,291.285
H,1,1229173,sinestep5.wav,None,1000,31,1521186,322,293.285
H,1,1229173,vowelstep7.wav,None,1000,31,1523186,329,295.285
H,1,1229173,vowelstep1.wav,None,1000,31,1525186,329,297.285
H,1,1229173,vowelstep7.wav,None,1000,31,1527186,342,299.285
H,1,1229173,vowelstep3.wav,None,1000,31,1529186,342,301.285
H,1,1229173,sinestep1.wav,None,1000,31,1531186,342,303.285
H,1,1229173,sinestep5.wav,None,1000,31,1533186,341,305.285
H,1,1229173,vowelstep5.wav,None,1000,31,1535186,330,307.285
H,1,1229173,sinestep3.wav,None,1000,31,1537186,330,309.285
H,1,1229173,vowelstep7.wav,None,1000,31,1539187,331,311.285
H,1,1229173,sinestep7.wav,None,1000,31,1541186,329,313.285
H,1,1229173,sinestep5.wav,None,1000,31,1543186,340,315.285
H,1,1229173,sinestep3.wav,None,1000,31,1545186,340,317.285
H,1,1229173,sinestep1.wav,None,1000,31,1547186,350,319.285
F,2,1607023,sinestep1.wav,None,1000,31,1607037,0,1.285
F,2,1607023,vowelstep5.wav,None,1000,31,1609038,337,3.285
F,2,1607023,vowelstep3.wav,None,1000,31,1611038,333,5.285
F,2,1607023,sinestep5.wav,None,1000,31,1613037,326,7.285
F,2,1607023,vowelstep7.wav,None,1000,31,1615037,321,9.285
F,2,1607023,silence.wav,None,1000,31,1617037,327,11.285
F,2,1607023,vowelstep5.wav,None,1000,31,1619037,324,13.285
F,2,1607023,sinestep3.wav,None,1000,31,1621037,336,15.285
F,2,1607023,sinestep3.wav,None,1000,31,1623037,336,17.285
F,2,1607023,silence.wav,None,1000,31,1625037,346,19.285
F,2,1607023,vowelstep7.wav,None,1000,31,1627038,346,21.285
F,2,1607023,vowelstep7.wav,None,1000,31,1629038,325,23.285
F,2,1607023,vowelstep1_catch.wav,1,281,31,1631038,326,25.285
F,2,1607023,vowelstep3_catch.wav,1,251,31,1633038,1040,27.285
F,2,1607023,vowelstep1.wav,None,1000,31,1635038,1083,29.285
F,2,1607023,sinestep5.wav,None,1000,31,1637037,335,31.285
F,2,1607023,sinestep5.wav,None,1000,31,1639037,331,33.285
F,2,1607023,vowelstep7.wav,None,1000,31,1641037,313,35.285
F,2,1607023,sinestep3.wav,None,1000,31,1643038,323,37.285
F,2,1607023,sinestep7.wav,None,1000,31,1645038,323,39.285
F,2,1607023,vowelstep5_catch.wav,1,337,31,1647038,333,41.285
F,2,1607023,sinestep1.wav,None,1000,31,1649038,994,43.285
F,2,1607023,vowelstep7_catch.wav,1,379,31,1651038,333,45.285
F,2,1607023,vowelstep3.wav,None,1000,31,1653038,953,47.285
F,2,1607023,sinestep1.wav,None,1000,31,1655038,345,49.285
F,2,1607023,sinestep7.wav,None,1000,31,1657038,324,51.285
F,2,1607023,silence.wav,None,1000,31,1659037,324,53.285
F,2,1607023,sinestep7.wav,None,1000,31,1661038,323,55.285
F,2,1607023,vowelstep1.wav,None,1000,31,1663038,334,57.285
F,2,1607023,vowelstep3.wav,None,1000,31,1665038,334,59.285
F,2,1607023,vowelstep7_catch.wav,1,409,31,1667038,329,61.285
F,2,1607023,sinestep5.wav,None,1000,31,1669038,934,63.285
F,2,1607023,sinestep3.wav,None,1000,31,1671038,323,65.285
F,2,1607023,vowelstep3.wav,None,1000,31,1673038,323,67.285
F,2,1607023,silence.wav,None,1000,31,1675038,333,69.285
F,2,1607023,vowelstep1.wav,None,1000,31,1677038,331,71.285
F,2,1607023,vowelstep1.wav,None,1000,31,1679039,332,73.285
F,2,1607023,vowelstep5_catch.wav,1,399,31,1681039,334,75.285
F,2,1607023,silence.wav,None,1000,31,1683038,938,77.285
F,2,1607023,vowelstep3.wav,None,1000,31,1685038,322,79.285
F,2,1607023,vowelstep5.wav,None,1000,31,1687038,319,81.285
F,2,1607023,vowelstep3_catch.wav,1,486,31,1689038,323,83.285
F,2,1607023,vowelstep3.wav,None,1000,31,1691038,841,85.285
F,2,1607023,sinestep7.wav,None,1000,31,1693038,329,87.285
F,2,1607023,vowelstep1.wav,None,1000,31,1695038,330,89.285
F,2,1607023,sinestep1.wav,None,1000,31,1697039,337,91.285
F,2,1607023,vowelstep1_catch.wav,1,403,31,1699039,341,93.285
F,2,1607023,vowelstep5.wav,None,1000,31,1701039,911,95.285
F,2,1607023,sinestep7.wav,None,1000,31,1703039,310,97.285
F,2,1607023,vowelstep7.wav,None,1000,31,1705039,326,99.285
F,2,1607023,vowelstep3.wav,None,1000,31,1707038,330,101.285
F,2,1607023,sinestep3.wav,None,1000,31,1709038,329,103.285
F,2,1607023,silence.wav,None,1000,31,1711038,339,105.285
F,2,1607023,sinestep1.wav,None,1000,31,1713039,341,107.285
F,2,1607023,sinestep1.wav,None,1000,31,1715039,337,109.285
F,2,1607023,silence.wav,None,1000,31,1717039,350,111.285
F,2,1607023,sinestep7.wav,None,1000,31,1719039,330,113.285
F,2,1607023,vowelstep3.wav,None,1000,31,1721039,330,115.285
F,2,1607023,sinestep3.wav,None,1000,31,1723039,329,117.285
F,2,1607023,vowelstep3.wav,None,1000,31,1725039,330,119.285
F,2,1607023,vowelstep7.wav,None,1000,31,1727039,340,121.285
F,2,1607023,vowelstep7.wav,None,1000,31,1729038,340,123.285
F,2,1607023,vowelstep5.wav,None,1000,31,1731039,346,125.285
F,2,1607023,sinestep1.wav,None,1000,31,1733039,319,127.285
F,2,1607023,silence.wav,None,1000,31,1735039,327,129.285
F,2,1607023,sinestep1.wav,None,1000,31,1737039,329,131.285
F,2,1607023,sinestep3.wav,None,1000,31,1739039,335,133.285
F,2,1607023,sinestep1_catch.wav,1,356,31,1741039,337,135.285
F,2,1607023,sinestep3.wav,None,1000,31,1743039,981,137.285
F,2,1607023,sinestep3.wav,None,1000,31,1745039,348,139.285
F,2,1607023,silence.wav,None,1000,31,1747039,326,141.285
F,2,1607023,silence.wav,None,1000,31,1749040,329,143.285
F,2,1607023,sinestep7.wav,None,1000,31,1751040,328,145.285
F,2,1607023,sinestep5.wav,None,1000,31,1753039,328,147.285
F,2,1607023,vowelstep1.wav,None,1000,31,1755039,334,149.285
F,2,1607023,sinestep7.wav,None,1000,31,1757039,338,151.285
F,2,1607023,silence.wav,None,1000,31,1759039,342,153.285
F,2,1607023,sinestep3_catch.wav,1,312,31,1761039,319,155.285
F,2,1607023,vowelstep5.wav,None,1000,31,1763039,1001,157.285
F,2,1607023,sinestep3.wav,None,1000,31,1765039,326,159.285
F,2,1607023,vowelstep5.wav,None,1000,31,1767040,332,161.285
F,2,1607023,sinestep3.wav,None,1000,31,1769040,333,163.285
F,2,1607023,vowelstep3.wav,None,1000,31,1771040,332,165.285
F,2,1607023,vowelstep1.wav,None,1000,31,1773040,333,167.285
F,2,1607023,sinestep5.wav,None,1000,31,1775040,344,169.285
F,2,1607023,vowelstep5.wav,None,1000,31,1777039,328,171.285
F,2,1607023,vowelstep1.wav,None,1000,31,1779039,325,173.285
F,2,1607023,vowelstep1.wav,None,1000,31,1781039,327,175.285
F,2,1607023,sinestep7.wav,None,1000,31,1783040,336,177.285
F,2,1607023,vowelstep1.wav,None,1000,31,1785040,335,179.285
F,2,1607023,sinestep5.wav,None,1000,31,1787040,332,181.285
F,2,1607023,vowelstep7.wav,None,1000,31,1789040,344,183.285
F,2,1607023,sinestep1.wav,None,1000,31,1791040,324,185.285
F,2,1607023,vowelstep7.wav,None,1000,31,1793040,324,187.285
F,2,1607023,sinestep5.wav,None,1000,31,1795040,323,189.285
F,2,1607023,vowelstep5.wav,None,1000,31,1797040,335,191.285
F,2,1607023,silence.wav,None,1000,31,1799039,335,193.285
F,2,1607023,sinestep7.wav,None,1000,31,1801040,336,195.285
F,2,1607023,vowelstep5.wav,None,1000,31,1803040,312,197.285
F,2,1607023,vowelstep7.wav,None,1000,31,1805040,323,199.285
F,2,1607023,silence.wav,None,1000,31,1807040,323,201.285
F,2,1607023,vowelstep1.wav,None,1000,31,1809040,325,203.285
F,2,1607023,vowelstep7.wav,None,1000,31,1811040,334,205.285
F,2,1607023,vowelstep7.wav,None,1000,31,1813040,335,207.285
F,2,1607023,vowelstep3.wav,None,1000,31,1815040,334,209.285
F,2,1607023,vowelstep3.wav,None,1000,31,1817040,344,211.285
F,2,1607023,silence.wav,None,1000,31,1819041,324,213.285
F,2,1607023,sinestep7.wav,None,1000,31,1821041,323,215.285
F,2,1607023,sinestep1.wav,None,1000,31,1823040,324,217.285
F,2,1607023,silence.wav,None,1000,31,1825040,333,219.285
F,2,1607023,vowelstep1.wav,None,1000,31,1827040,333,221.285
F,2,1607023,sinestep5_catch.wav,1,449,31,1829040,333,223.285
F,2,1607023,sinestep1.wav,None,1000,31,1831040,889,225.285
F,2,1607023,silence.wav,None,1000,31,1833040,324,227.285
F,2,1607023,sinestep7.wav,None,1000,31,1835040,322,229.285
F,2,1607023,sinestep7.wav,None,1000,31,1837041,318,231.285
F,2,1607023,silence.wav,None,1000,31,1839041,332,233.285
F,2,1607023,vowelstep5.wav,None,1000,31,1841041,333,235.285
F,2,1607023,sinestep7.wav,None,1000,31,1843041,334,237.285
F,2,1607023,sinestep5.wav,None,1000,31,1845041,343,239.285
F,2,1607023,sinestep5.wav,None,1000,31,1847040,323,241.285
F,2,1607023,silence.wav,None,1000,31,1849040,323,243.285
F,2,1607023,vowelstep3.wav,None,1000,31,1851040,318,245.285
F,2,1607023,vowelstep3.wav,None,1000,31,1853041,323,247.285
F,2,1607023,silence.wav,None,1000,31,1855041,328,249.285
F,2,1607023,sinestep1.wav,None,1000,31,1857041,332,251.285
F,2,1607023,sinestep1.wav,None,1000,31,1859041,339,253.285
F,2,1607023,vowelstep5.wav,None,1000,31,1861041,341,255.285
F,2,1607023,silence.wav,None,1000,31,1863041,321,257.285
F,2,1607023,sinestep5.wav,None,1000,31,1865041,321,259.285
F,2,1607023,sinestep5.wav,None,1000,31,1867041,321,261.285
F,2,1607023,sinestep5.wav,None,1000,31,1869041,330,263.285
F,2,1607023,sinestep7.wav,None,1000,31,1871041,331,265.285
F,2,1607023,sinestep7_catch.wav,1,387,31,1873041,330,267.285
F,2,1607023,sinestep7_catch.wav,1,334,31,1875041,916,269.285
F,2,1607023,sinestep1.wav,None,1000,31,1877041,986,271.285
F,2,1607023,vowelstep7.wav,None,1000,31,1879041,319,273.285
F,2,1607023,sinestep3.wav,None,1000,31,1881041,330,275.285
F,2,1607023,sinestep3.wav,None,1000,31,1883041,330,277.285
F,2,1607023,silence.wav,None,1000,31,1885041,326,279.285
F,2,1607023,sinestep5_catch.wav,1,360,31,1887041,329,281.285
F,2,1607023,sinestep5.wav,None,1000,31,1889042,957,283.285
F,2,1607023,silence.wav,None,1000,31,1891042,321,285.285
F,2,1607023,vowelstep5.wav,None,1000,31,1893041,319,287.285
F,2,1607023,silence.wav,None,1000,31,1895041,319,289.285
F,2,1607023,sinestep1.wav,None,1000,31,1897041,329,291.285
F,2,1607023,sinestep3.wav,None,1000,31,1899041,329,293.285
F,2,1607023,vowelstep3.wav,None,1000,31,1901041,329,295.285
F,2,1607023,silence.wav,None,1000,31,1903041,309,297.285
F,2,1607023,sinestep5.wav,None,1000,31,1905041,319,299.285
F,2,1607023,vowelstep5.wav,None,1000,31,1907042,317,301.285
F,2,1607023,vowelstep5.wav,None,1000,31,1909042,317,303.285
F,2,1607023,vowelstep1.wav,None,1000,31,1911042,327,305.285
F,2,1607023,sinestep3.wav,None,1000,31,1913042,326,307.285
F,2,1607023,silence.wav,None,1000,31,1915042,323,309.285
F,2,1607023,sinestep3_catch.wav,1,627,31,1917041,317,311.285
F,2,1607023,vowelstep1.wav,None,1000,31,1919041,688,313.285
F,2,1607023,vowelstep7.wav,None,1000,31,1921041,320,315.285
F,2,1607023,vowelstep7.wav,None,1000,31,1923042,348,317.285
F,2,1607023,vowelstep1.wav,None,1000,31,1925042,327,319.285
B,3,1997231,vowelstep5.wav,None,1000,31,1997243,0,1.285
B,3,1997231,silence.wav,None,1000,31,1999243,351,3.285
B,3,1997231,sinestep7.wav,None,1000,31,2001243,318,5.285
B,3,1997231,vowelstep1_catch.wav,1,409,31,2003243,332,7.285
B,3,1997231,vowelstep7.wav,None,1000,31,2005243,916,9.285
B,3,1997231,vowelstep3.wav,None,1000,31,2007243,341,11.285
B,3,1997231,vowelstep7.wav,None,1000,31,2009243,332,13.285
B,3,1997231,vowelstep5.wav,None,1000,31,2011243,336,15.285
B,3,1997231,vowelstep7.wav,None,1000,31,2013243,336,17.285
B,3,1997231,vowelstep3.wav,None,1000,31,2015243,330,19.285
B,3,1997231,silence.wav,None,1000,31,2017243,329,21.285
B,3,1997231,silence.wav,None,1000,31,2019243,326,23.285
B,3,1997231,sinestep5.wav,None,1000,31,2021243,339,25.285
B,3,1997231,sinestep1.wav,None,1000,31,2023243,338,27.285
B,3,1997231,vowelstep7.wav,None,1000,31,2025243,336,29.285
B,3,1997231,sinestep5.wav,None,1000,31,2027243,349,31.285
B,3,1997231,vowelstep1.wav,None,1000,31,2029244,327,33.285
B,3,1997231,vowelstep7.wav,None,1000,31,2031244,329,35.285
B,3,1997231,vowelstep3.wav,None,1000,31,2033244,325,37.285
B,3,1997231,sinestep5.wav,None,1000,31,2035243,328,39.285
B,3,1997231,vowelstep1.wav,None,1000,31,2037243,337,41.285
B,3,1997231,sinestep3.wav,None,1000,31,2039243,337,43.285
B,3,1997231,vowelstep5.wav,None,1000,31,2041243,337,45.285
B,3,1997231,vowelstep7.wav,None,1000,31,2043243,318,47.285
B,3,1997231,vowelstep3.wav,None,1000,31,2045244,327,49.285
B,3,1997231,sinestep7.wav,None,1000,31,2047244,327,51.285
B,3,1997231,sinestep3.wav,None,1000,31,2049244,323,53.285
B,3,1997231,sinestep1.wav,None,1000,31,2051244,337,55.285
B,3,1997231,sinestep1.wav,None,1000,31,2053244,337,57.285
B,3,1997231,sinestep5.wav,None,1000,31,2055244,337,59.285
B,3,1997231,vowelstep5.wav,None,1000,31,2057243,326,61.285
B,3,1997231,vowelstep3_catch.wav,1,273,31,2059243,326,63.285
B,3,1997231,vowelstep7.wav,None,1000,31,2061243,1053,65.285
B,3,1997231,sinestep1.wav,None,1000,31,2063244,327,67.285
B,3,1997231,vowelstep5.wav,None,1000,31,2065244,338,69.285
B,3,1997231,vowelstep5_catch.wav,1,230,31,2067244,336,71.285
B,3,1997231,vowelstep7.wav,None,1000,31,2069244,1105,73.285
B,3,1997231,sinestep3.wav,None,1000,31,2071244,316,75.285
B,3,1997231,vowelstep7_catch.wav,1,289,31,2073244,326,77.285
B,3,1997231,sinestep5.wav,None,1000,31,2075244,1035,79.285
B,3,1997231,vowelstep5.wav,None,1000,31,2077244,325,81.285
B,3,1997231,silence.wav,None,1000,31,2079244,335,83.285
B,3,1997231,silence.wav,None,1000,31,2081245,331,85.285
B,3,1997231,vowelstep3.wav,None,1000,31,2083244,333,87.285
B,3,1997231,silence.wav,None,1000,31,2085244,344,89.285
B,3,1997231,sinestep1.wav,None,1000,31,2087244,325,91.285
B,3,1997231,sinestep1.wav,None,1000,31,2089244,323,93.285
B,3,1997231,sinestep5.wav,None,1000,31,2091244,324,95.285
B,3,1997231,vowelstep7.wav,None,1000,31,2093244,334,97.285
B,3,1997231,sinestep5.wav,None,1000,31,2095244,335,99.285
B,3,1997231,sinestep5.wav,None,1000,31,2097244,334,101.285
B,3,1997231,silence.wav,None,1000,31,2099245,342,103.285
B,3,1997231,vowelstep1.wav,None,1000,31,2101245,313,105.285
B,3,1997231,silence.wav,None,1000,31,2103245,319,107.285
B,3,1997231,sinestep1.wav,None,1000,31,2105244,321,109.285
B,3,1997231,vowelstep7.wav,None,1000,31,2107244,332,111.285
B,3,1997231,silence.wav,None,1000,31,2109244,333,113.285
B,3,1997231,sinestep1.wav,None,1000,31,2111244,330,115.285
B,3,1997231,vowelstep3.wav,None,1000,31,2113244,341,117.285
B,3,1997231,vowelstep5.wav,None,1000,31,2115245,314,119.285
B,3,1997231,silence.wav,None,1000,31,2117245,321,121.285
B,3,1997231,sinestep3.wav,None,1000,31,2119245,323,123.285
B,3,1997231,sinestep5.wav,None,1000,31,2121245,322,125.285
B,3,1997231,silence.wav,None,1000,31,2123245,334,127.285
B,3,1997231,vowelstep5.wav,None,1000,31,2125245,332,129.285
B,3,1997231,sinestep3.wav,None,1000,31,2127245,329,131.285
B,3,1997231,sinestep5.wav,None,1000,31,2129244,342,133.285
B,3,1997231,sinestep5.wav,None,1000,31,2131244,322,135.285
B,3,1997231,sinestep7.wav,None,1000,31,2133245,318,137.285
B,3,1997231,sinestep7.wav,None,1000,31,2135245,322,139.285
B,3,1997231,vowelstep5.wav,None,1000,31,2137245,333,141.285
B,3,1997231,sinestep1.wav,None,1000,31,2139245,332,143.285
B,3,1997231,vowelstep7.wav,None,1000,31,2141245,343,145.285
B,3,1997231,sinestep7.wav,None,1000,31,2143245,313,147.285
B,3,1997231,vowelstep5.wav,None,1000,31,2145245,320,149.285
B,3,1997231,vowelstep1.wav,None,1000,31,2147245,321,151.285
B,3,1997231,sinestep3.wav,None,1000,31,2149245,331,153.285
B,3,1997231,silence.wav,None,1000,31,2151246,328,155.285
B,3,1997231,silence.wav,None,1000,31,2153245,332,157.285
B,3,1997231,sinestep7_catch.wav,1,341,31,2155245,330,159.285
B,3,1997231,vowelstep5.wav,None,1000,31,2157245,999,161.285
B,3,1997231,sinestep7.wav,None,1000,31,2159245,341,163.285
B,3,1997231,vowelstep5.wav,None,1000,31,2161245,348,165.285
B,3,1997231,vowelstep3.wav,None,1000,31,2163245,323,167.285
B,3,1997231,silence.wav,None,1000,31,2165245,328,169.285
B,3,1997231,sinestep3.wav,None,1000,31,2167245,332,171.285
B,3,1997231,sinestep7_catch.wav,1,401,31,2169246,339,173.285
B,3,1997231,sinestep3.wav,None,1000,31,2171246,937,175.285
B,3,1997231,sinestep5_catch.wav,1,368,31,2173246,340,177.285
B,3,1997231,vowelstep5.wav,None,1000,31,2175245,970,179.285
B,3,1997231,silence.wav,None,1000,31,2177245,320,181.285
B,3,1997231,sinestep7.wav,None,1000,31,2179245,327,183.285
B,3,1997231,silence.wav,None,1000,31,2181245,331,185.285
B,3,1997231,sinestep3.wav,None,1000,31,2183245,329,187.285
B,3,1997231,silence.wav,None,1000,31,2185246,336,189.285
B,3,1997231,vowelstep7.wav,None,1000,31,2187246,340,191.285
B,3,1997231,vowelstep3.wav,None,1000,31,2189246,338,193.285
B,3,1997231,vowelstep3.wav,None,1000,31,2191246,350,195.285
B,3,1997231,sinestep7.wav,None,1000,31,2193246,329,197.285
B,3,1997231,sinestep7.wav,None,1000,31,2195246,327,199.285
B,3,1997231,sinestep3.wav,None,1000,31,2197246,330,201.285
B,3,1997231,sinestep3_catch.wav,1,344,31,2199245,340,203.285
B,3,1997231,sinestep1.wav,None,1000,31,2201245,991,205.285
B,3,1997231,sinestep1.wav,None,1000,31,2203246,339,207.285
B,3,1997231,sinestep3.wav,None,1000,31,2205246,318,209.285
B,3,1997231,silence.wav,None,1000,31,2207246,329,211.285
B,3,1997231,silence.wav,None,1000,31,2209246,329,213.285
B,3,1997231,sinestep5_catch.wav,1,401,31,2211246,325,215.285
B,3,1997231,sinestep7.wav,None,1000,31,2213246,936,217.285
B,3,1997231,sinestep7.wav,None,1000,31,2215246,335,219.285
B,3,1997231,vowelstep3.wav,None,1000,31,2217246,336,221.285
B,3,1997231,sinestep1_catch.wav,1,387,31,2219246,339,223.285
B,3,1997231,vowelstep5.wav,None,1000,31,2221247,939,225.285
B,3,1997231,sinestep1.wav,None,1000,31,2223246,323,227.285
B,3,1997231,vowelstep1.wav,None,1000,31,2225246,327,229.285
B,3,1997231,vowelstep1.wav,None,1000,31,2227246,337,231.285
B,3,1997231,sinestep5.wav,None,1000,31,2229246,337,233.285
B,3,1997231,silence.wav,None,1000,31,2231246,338,235.285
B,3,1997231,silence.wav,None,1000,31,2233246,345,237.285
B,3,1997231,vowelstep1.wav,None,1000,31,2235246,327,239.285
B,3,1997231,vowelstep1.wav,None,1000,31,2237246,327,241.285
B,3,1997231,silence.wav,None,1000,31,2239247,326,243.285
B,3,1997231,vowelstep1_catch.wav,1,465,31,2241247,333,245.285
B,3,1997231,sinestep7.wav,None,1000,31,2243247,868,247.285
B,3,1997231,sinestep1.wav,None,1000,31,2245247,336,249.285
B,3,1997231,vowelstep1.wav,None,1000,31,2247246,335,251.285
B,3,1997231,vowelstep3.wav,None,1000,31,2249246,326,253.285
B,3,1997231,sinestep3.wav,None,1000,31,2251246,327,255.285
B,3,1997231,silence.wav,None,1000,31,2253246,326,257.285
B,3,1997231,vowelstep3.wav,None,1000,31,2255247,325,259.285
B,3,1997231,silence.wav,None,1000,31,2257247,336,261.285
B,3,1997231,vowelstep3.wav,None,1000,31,2259247,333,263.285
B,3,1997231,sinestep5.wav,None,1000,31,2261247,345,265.285
B,3,1997231,vowelstep3_catch.wav,1,394,31,2263247,343,267.285
B,3,1997231,sinestep3.wav,None,1000,31,2265247,924,269.285
B,3,1997231,sinestep1.wav,None,1000,31,2267247,322,271.285
B,3,1997231,vowelstep3.wav,None,1000,31,2269246,323,273.285
B,3,1997231,vowelstep1.wav,None,1000,31,2271246,333,275.285
B,3,1997231,vowelstep5_catch.wav,1,486,31,2273247,329,277.285
B,3,1997231,vowelstep1.wav,None,1000,31,2275247,842,279.285
B,3,1997231,vowelstep5.wav,None,1000,31,2277247,311,281.285
B,3,1997231,sinestep7.wav,None,1000,31,2279247,322,283.285
B,3,1997231,vowelstep7.wav,None,1000,31,2281247,316,285.285
B,3,1997231,vowelstep1_catch.wav,1,391,31,2283247,319,287.285
B,3,1997231,sinestep1.wav,None,1000,31,2285247,939,289.285
B,3,1997231,vowelstep1.wav,None,1000,31,2287247,333,291.285
B,3,1997231,sinestep5.wav,None,1000,31,2289247,332,293.285
B,3,1997231,vowelstep7.wav,None,1000,31,2291248,339,295.285
B,3,1997231,sinestep7.wav,None,1000,31,2293247,322,297.285
B,3,1997231,vowelstep7_catch.wav,1,257,31,2295247,317,299.285
B,3,1997231,sinestep3.wav,None,1000,31,2297247,1064,301.285
B,3,1997231,vowelstep3.wav,None,1000,31,2299247,327,303.285
B,3,1997231,sinestep5.wav,None,1000,31,2301247,333,305.285
B,3,1997231,vowelstep1.wav,None,1000,31,2303247,332,307.285
B,3,1997231,vowelstep7.wav,None,1000,31,2305247,340,309.285
B,3,1997231,vowelstep1.wav,None,1000,31,2307247,324,311.285
B,3,1997231,sinestep7.wav,None,1000,31,2309248,321,313.285
B,3,1997231,sinestep3.wav,None,1000,31,2311248,332,315.285
B,3,1997231,silence.wav,None,1000,31,2313248,331,317.285
B,3,1997231,vowelstep1.wav,None,1000,31,2315248,333,319.285
J,4,2382176,sinestep5_catch.wav,1,576,31,2382182,0,1.285
J,4,2382176,sinestep5.wav,None,1000,31,2384182,755,3.285
J,4,2382176,sinestep3.wav,None,1000,31,2386182,339,5.285
J,4,2382176,sinestep1.wav,None,1000,31,2388182,341,7.285
J,4,2382176,sinestep7.wav,None,1000,31,2390182,351,9.285
J,4,2382176,vowelstep3.wav,None,1000,31,2392182,321,11.285
J,4,2382176,sinestep1.wav,None,1000,31,2394182,329,13.285
J,4,2382176,vowelstep5.wav,None,1000,31,2396182,330,15.285
J,4,2382176,vowelstep3.wav,None,1000,31,2398182,334,17.285
J,4,2382176,vowelstep1.wav,None,1000,31,2400182,342,19.285
J,4,2382176,vowelstep1.wav,None,1000,31,2402182,336,21.285
J,4,2382176,sinestep3.wav,None,1000,31,2404182,351,23.285
J,4,2382176,silence.wav,None,1000,31,2406182,331,25.285
J,4,2382176,vowelstep7.wav,None,1000,31,2408182,331,27.285
J,4,2382176,sinestep3.wav,None,1000,31,2410182,326,29.285
J,4,2382176,sinestep7.wav,None,1000,31,2412182,339,31.285
J,4,2382176,silence.wav,None,1000,31,2414183,337,33.285
J,4,2382176,vowelstep5.wav,None,1000,31,2416183,340,35.285
J,4,2382176,sinestep1.wav,None,1000,31,2418182,350,37.285
J,4,2382176,sinestep1_catch.wav,1,267,31,2420182,320,39.285
J,4,2382176,sinestep7.wav,None,1000,31,2422182,1063,41.285
J,4,2382176,vowelstep7.wav,None,1000,31,2424182,330,43.285
J,4,2382176,sinestep3_catch.wav,1,334,31,2426182,337,45.285
J,4,2382176,vowelstep3.wav,None,1000,31,2428182,1005,47.285
J,4,2382176,vowelstep7.wav,None,1000,31,2430183,338,49.285
J,4,2382176,sinestep1.wav,None,1000,31,2432183,339,51.285
J,4,2382176,vowelstep3.wav,None,1000,31,2434183,316,53.285
J,4,2382176,vowelstep1.wav,None,1000,31,2436183,327,55.285
J,4,2382176,sinestep5.wav,None,1000,31,2438183,328,57.285
J,4,2382176,sinestep5_catch.wav,1,247,31,2440183,336,59.285
J,4,2382176,sinestep5.wav,None,1000,31,2442182,1087,61.285
J,4,2382176,vowelstep7.wav,None,1000,31,2444182,340,63.285
J,4,2382176,sinestep7.wav,None,1000,31,2446182,336,65.285
J,4,2382176,vowelstep1.wav,None,1000,31,2448183,319,67.285
J,4,2382176,sinestep7_catch.wav,1,183,31,2450183,327,69.285
J,4,2382176,silence.wav,None,1000,31,2452183,1144,71.285
J,4,2382176,vowelstep5.wav,None,1000,31,2454183,328,73.285
J,4,2382176,sinestep5.wav,None,1000,31,2456183,335,75.285
J,4,2382176,sinestep5.wav,None,1000,31,2458183,331,77.285
J,4,2382176,vowelstep3.wav,None,1000,31,2460183,334,79.285
J,4,2382176,vowelstep5.wav,None,1000,31,2462183,314,81.285
J,4,2382176,sinestep3.wav,None,1000,31,2464183,325,83.285
J,4,2382176,silence.wav,None,1000,31,2466183,322,85.285
J,4,2382176,vowelstep3.wav,None,1000,31,2468183,324,87.285
J,4,2382176,vowelstep7.wav,None,1000,31,2470183,329,89.285
J,4,2382176,silence.wav,None,1000,31,2472183,335,91.285
J,4,2382176,sinestep3.wav,None,1000,31,2474183,334,93.285
J,4,2382176,silence.wav,None,1000,31,2476183,347,95.285
J,4,2382176,sinestep1.wav,None,1000,31,2478183,344,97.285
J,4,2382176,sinestep5_catch.wav,1,319,31,2480183,328,99.285
J,4,2382176,sinestep7.wav,None,1000,31,2482183,1003,101.285
J,4,2382176,sinestep5.wav,None,1000,31,2484184,333,103.285
J,4,2382176,sinestep5.wav,None,1000,31,2486184,331,105.285
J,4,2382176,sinestep3.wav,None,1000,31,2488184,333,107.285
J,4,2382176,sinestep3_catch.wav,1,336,31,2490183,340,109.285
J,4,2382176,sinestep3.wav,None,1000,31,2492183,1008,111.285
J,4,2382176,silence.wav,None,1000,31,2494183,345,113.285
J,4,2382176,sinestep1.wav,None,1000,31,2496183,356,115.285
J,4,2382176,silence.wav,None,1000,31,2498183,335,117.285
J,4,2382176,vowelstep3.wav,None,1000,31,2500184,335,119.285
J,4,2382176,vowelstep5.wav,None,1000,31,2502184,333,121.285
J,4,2382176,vowelstep7.wav,None,1000,31,2504184,342,123.285
J,4,2382176,silence.wav,None,1000,31,2506184,344,125.285
J,4,2382176,sinestep1.wav,None,1000,31,2508184,345,127.285
J,4,2382176,sinestep3.wav,None,1000,31,2510184,354,129.285
J,4,2382176,sinestep7.wav,None,1000,31,2512184,329,131.285
J,4,2382176,silence.wav,None,1000,31,2514183,332,133.285
J,4,2382176,sinestep1.wav,None,1000,31,2516183,332,135.285
J,4,2382176,vowelstep7.wav,None,1000,31,2518184,344,137.285
J,4,2382176,sinestep5.wav,None,1000,31,2520184,343,139.285
J,4,2382176,vowelstep1.wav,None,1000,31,2522184,342,141.285
J,4,2382176,vowelstep7.wav,None,1000,31,2524184,354,143.285
J,4,2382176,vowelstep3.wav,None,1000,31,2526184,323,145.285
J,4,2382176,vowelstep3.wav,None,1000,31,2528184,332,147.285
J,4,2382176,sinestep7.wav,None,1000,31,2530184,331,149.285
J,4,2382176,vowelstep5.wav,None,1000,31,2532184,344,151.285
J,4,2382176,silence.wav,None,1000,31,2534184,344,153.285
J,4,2382176,sinestep1.wav,None,1000,31,2536184,343,155.285
J,4,2382176,sinestep3.wav,None,1000,31,2538184,334,157.285
J,4,2382176,silence.wav,None,1000,31,2540184,349,159.285
J,4,2382176,sinestep1.wav,None,1000,31,2542184,325,161.285
J,4,2382176,vowelstep7.wav,None,1000,31,2544184,328,163.285
J,4,2382176,vowelstep7.wav,None,1000,31,2546184,339,165.285
J,4,2382176,sinestep1_catch.wav,1,193,31,2548184,339,167.285
J,4,2382176,vowelstep1_catch.wav,1,309,31,2550184,1146,169.285
J,4,2382176,vowelstep1.wav,None,1000,31,2552185,1036,171.285
J,4,2382176,vowelstep7.wav,None,1000,31,2554185,328,173.285
J,4,2382176,sinestep1.wav,None,1000,31,2556185,328,175.285
J,4,2382176,vowelstep5.wav,None,1000,31,2558185,331,177.285
J,4,2382176,vowelstep5.wav,None,1000,31,2560184,342,179.285
J,4,2382176,sinestep5.wav,None,1000,31,2562184,338,181.285
J,4,2382176,sinestep7.wav,None,1000,31,2564184,341,183.285
J,4,2382176,sinestep7.wav,None,1000,31,2566184,337,185.285
J,4,2382176,sinestep1.wav,None,1000,31,2568184,328,187.285
J,4,2382176,vowelstep1.wav,None,1000,31,2570185,327,189.285
J,4,2382176,silence.wav,None,1000,31,2572185,330,191.285
J,4,2382176,sinestep5.wav,None,1000,31,2574185,327,193.285
J,4,2382176,vowelstep5.wav,None,1000,31,2576185,340,195.285
J,4,2382176,vowelstep1.wav,None,1000,31,2578185,336,197.285
J,4,2382176,vowelstep1.wav,None,1000,31,2580185,348,199.285
J,4,2382176,sinestep3.wav,None,1000,31,2582185,349,201.285
J,4,2382176,sinestep3.wav,None,1000,31,2584184,320,203.285
J,4,2382176,silence.wav,None,1000,31,2586184,330,205.285
J,4,2382176,sinestep5.wav,None,1000,31,2588185,326,207.285
J,4,2382176,vowelstep1.wav,None,1000,31,2590185,340,209.285
J,4,2382176,vowelstep5.wav,None,1000,31,2592185,340,211.285
J,4,2382176,vowelstep3.wav,None,1000,31,2594185,331,213.285
J,4,2382176,vowelstep3.wav,None,1000,31,2596185,319,215.285
J,4,2382176,silence.wav,None,1000,31,2598185,327,217.285
J,4,2382176,sinestep1.wav,None,1000,31,2600185,327,219.285
J,4,2382176,vowelstep3.wav,None,1000,31,2602185,329,221.285
J,4,2382176,sinestep7.wav,None,1000,31,2604185,335,223.285
J,4,2382176,vowelstep7.wav,None,1000,31,2606235,-40,225.285
J,4,2382176,silence.wav,None,1000,31,2608185,267,227.285
J,4,2382176,vowelstep5.wav,None,1000,31,2610185,345,229.285
J,4,2382176,silence.wav,None,1000,31,2612185,327,231.285
J,4,2382176,sinestep3.wav,None,1000,31,2614185,325,233.285
J,4,2382176,vowelstep5.wav,None,1000,31,2616185,327,235.285
J,4,2382176,vowelstep3.wav,None,1000,31,2618185,338,237.285
J,4,2382176,vowelstep5.wav,None,1000,31,2620185,334,239.285
J,4,2382176,vowelstep7.wav,None,1000,31,2622186,332,241.285
J,4,2382176,vowelstep1.wav,None,1000,31,2624186,318,243.285
J,4,2382176,sinestep7.wav,None,1000,31,2626186,322,245.285
J,4,2382176,sinestep7.wav,None,1000,31,2628186,326,247.285
J,4,2382176,silence.wav,None,1000,31,2630185,327,249.285
J,4,2382176,vowelstep1.wav,None,1000,31,2632185,337,251.285
J,4,2382176,vowelstep3_catch.wav,1,181,31,2634185,337,253.285
J,4,2382176,vowelstep1.wav,None,1000,31,2636185,1154,255.285
J,4,2382176,vowelstep5_catch.wav,1,568,31,2638185,333,257.285
J,4,2382176,silence.wav,None,1000,31,2640186,760,259.285
J,4,2382176,sinestep5.wav,None,1000,31,2642186,319,261.285
J,4,2382176,vowelstep1.wav,None,1000,31,2644186,325,263.285
J,4,2382176,sinestep5.wav,None,1000,31,2646186,331,265.285
J,4,2382176,vowelstep3.wav,None,1000,31,2648186,335,267.285
J,4,2382176,sinestep5.wav,None,1000,31,2650186,332,269.285
J,4,2382176,sinestep7.wav,None,1000,31,2652186,345,271.285
J,4,2382176,silence.wav,None,1000,31,2654185,327,273.285
J,4,2382176,vowelstep7_catch.wav,1,360,31,2656185,325,275.285
J,4,2382176,sinestep3.wav,None,1000,31,2658186,959,277.285
J,4,2382176,vowelstep5.wav,None,1000,31,2660186,334,279.285
J,4,2382176,silence.wav,None,1000,31,2662186,333,281.285
J,4,2382176,silence.wav,None,1000,31,2664186,334,283.285
J,4,2382176,silence.wav,None,1000,31,2666186,331,285.285
J,4,2382176,vowelstep7.wav,None,1000,31,2668186,316,287.285
J,4,2382176,sinestep3.wav,None,1000,31,2670186,325,289.285
J,4,2382176,vowelstep5_catch.wav,1,282,31,2672186,324,291.285
J,4,2382176,silence.wav,None,1000,31,2674186,1039,293.285
J,4,2382176,sinestep7.wav,None,1000,31,2676187,333,295.285
J,4,2382176,vowelstep1.wav,None,1000,31,2678186,334,297.285
J,4,2382176,silence.wav,None,1000,31,2680186,332,299.285
J,4,2382176,sinestep1.wav,None,1000,31,2682186,325,301.285
J,4,2382176,sinestep5.wav,None,1000,31,2684186,325,303.285
J,4,2382176,vowelstep5.wav,None,1000,31,2686186,326,305.285
J,4,2382176,vowelstep3.wav,None,1000,31,2688186,325,307.285
J,4,2382176,sinestep7.wav,None,1000,31,2690186,333,309.285
J,4,2382176,vowelstep7.wav,None,1000,31,2692187,334,311.285
J,4,2382176,vowelstep3_catch.wav,1,245,31,2694187,342,313.285
J,4,2382176,vowelstep1_catch.wav,1,391,31,2696187,1068,315.285
J,4,2382176,sinestep3.wav,None,1000,31,2698187,932,317.285
J,4,2382176,sinestep1.wav,None,1000,31,2700186,323,319.285
D,5,2762876,sinestep5.wav,None,1000,31,2762888,0,1.285
D,5,2762876,vowelstep1_catch.wav,1,879,31,2764888,339,3.285
D,5,2762876,sinestep7.wav,None,1000,31,2766888,459,5.285
D,5,2762876,vowelstep3.wav,None,1000,31,2768888,339,7.285
D,5,2762876,vowelstep3_catch.wav,1,306,31,2770887,349,9.285
D,5,2762876,vowelstep5_catch.wav,1,256,31,2772887,1009,11.285
D,5,2762876,sinestep7.wav,None,1000,31,2774887,1073,13.285
D,5,2762876,silence.wav,None,1000,31,2776887,328,15.285
D,5,2762876,vowelstep7_catch.wav,1,229,31,2778887,340,17.285
D,5,2762876,vowelstep7.wav,None,1000,31,2780888,1109,19.285
D,5,2762876,vowelstep3.wav,None,1000,31,2782888,339,21.285
D,5,2762876,vowelstep7_catch.wav,1,440,31,2784888,336,23.285
D,5,2762876,vowelstep5.wav,None,1000,31,2786888,888,25.285
D,5,2762876,sinestep7.wav,None,1000,31,2788888,326,27.285
D,5,2762876,silence.wav,None,1000,31,2790888,329,29.285
D,5,2762876,vowelstep1.wav,None,1000,31,2792888,338,31.285
D,5,2762876,vowelstep1.wav,None,1000,31,2794887,339,33.285
D,5,2762876,vowelstep7.wav,None,1000,31,2796887,339,35.285
D,5,2762876,vowelstep3.wav,None,1000,31,2798888,344,37.285
D,5,2762876,sinestep3.wav,None,1000,31,2800888,327,39.285
D,5,2762876,sinestep1.wav,None,1000,31,2802888,327,41.285
D,5,2762876,vowelstep1.wav,None,1000,31,2804888,327,43.285
D,5,2762876,vowelstep1.wav,None,1000,31,2806888,337,45.285
D,5,2762876,sinestep7.wav,None,1000,31,2808888,338,47.285
D,5,2762876,sinestep3.wav,None,1000,31,2810888,337,49.285
D,5,2762876,vowelstep5_catch.wav,1,113,31,2812888,337,51.285
D,5,2762876,sinestep7.wav,None,1000,31,2814889,1211,53.285
D,5,2762876,vowelstep5.wav,None,1000,31,2816889,325,55.285
D,5,2762876,sinestep3.wav,None,1000,31,2818888,326,57.285
D,5,2762876,sinestep7.wav,None,1000,31,2820888,328,59.285
D,5,2762876,vowelstep3.wav,None,1000,31,2822888,336,61.285
D,5,2762876,vowelstep3.wav,None,1000,31,2824888,337,63.285
D,5,2762876,vowelstep3_catch.wav,1,354,31,2826888,347,65.285
D,5,2762876,silence.wav,None,1000,31,2828888,988,67.285
D,5,2762876,vowelstep7.wav,None,1000,31,2830888,323,69.285
D,5,2762876,silence.wav,None,1000,31,2832889,326,71.285
D,5,2762876,sinestep1.wav,None,1000,31,2834889,322,73.285
D,5,2762876,vowelstep5.wav,None,1000,31,2836889,335,75.285
D,5,2762876,vowelstep1.wav,None,1000,31,2838889,328,77.285
D,5,2762876,sinestep7.wav,None,1000,31,2840888,332,79.285
D,5,2762876,vowelstep1.wav,None,1000,31,2842888,311,81.285
D,5,2762876,sinestep7.wav,None,1000,31,2844888,323,83.285
D,5,2762876,vowelstep7.wav,None,1000,31,2846888,315,85.285
D,5,2762876,vowelstep5.wav,None,1000,31,2848888,322,87.285
D,5,2762876,vowelstep1.wav,None,1000,31,2850889,330,89.285
D,5,2762876,sinestep5.wav,None,1000,31,2852889,334,91.285
D,5,2762876,sinestep5.wav,None,1000,31,2854889,325,93.285
D,5,2762876,vowelstep3.wav,None,1000,31,2856889,340,95.285
D,5,2762876,silence.wav,None,1000,31,2858889,320,97.285
D,5,2762876,sinestep1.wav,None,1000,31,2860889,319,99.285
D,5,2762876,sinestep1.wav,None,1000,31,2862889,321,101.285
D,5,2762876,sinestep3.wav,None,1000,31,2864888,320,103.285
D,5,2762876,vowelstep1.wav,None,1000,31,2866889,331,105.285
D,5,2762876,sinestep7.wav,None,1000,31,2868889,330,107.285
D,5,2762876,vowelstep3.wav,None,1000,31,2870889,332,109.285
D,5,2762876,silence.wav,None,1000,31,2872889,316,111.285
D,5,2762876,vowelstep5.wav,None,1000,31,2874889,320,113.285
D,5,2762876,vowelstep1.wav,None,1000,31,2876889,319,115.285
D,5,2762876,vowelstep1_catch.wav,1,218,31,2878889,331,117.285
D,5,2762876,vowelstep7.wav,None,1000,31,2880889,1108,119.285
D,5,2762876,sinestep5.wav,None,1000,31,2882889,331,121.285
D,5,2762876,vowelstep7.wav,None,1000,31,2884890,323,123.285
D,5,2762876,sinestep1.wav,None,1000,31,2886889,320,125.285
D,5,2762876,sinestep1.wav,None,1000,31,2888889,316,127.285
D,5,2762876,vowelstep3.wav,None,1000,31,2890889,321,129.285
D,5,2762876,sinestep1.wav,None,1000,31,2892889,320,131.285
D,5,2762876,silence.wav,None,1000,31,2894889,327,133.285
D,5,2762876,sinestep3.wav,None,1000,31,2896889,330,135.285
D,5,2762876,silence.wav,None,1000,31,2898889,340,137.285
D,5,2762876,vowelstep3.wav,None,1000,31,2900889,315,139.285
D,5,2762876,vowelstep5.wav,None,1000,31,2902890,321,141.285
D,5,2762876,silence.wav,None,1000,31,2904890,319,143.285
D,5,2762876,sinestep5.wav,None,1000,31,2906890,330,145.285
D,5,2762876,sinestep5.wav,None,1000,31,2908890,324,147.285
D,5,2762876,sinestep1.wav,None,1000,31,2910889,328,149.285
D,5,2762876,vowelstep5.wav,None,1000,31,2912889,331,151.285
D,5,2762876,vowelstep5.wav,None,1000,31,2914889,331,153.285
D,5,2762876,sinestep1_catch.wav,1,333,31,2916889,334,155.285
D,5,2762876,sinestep5.wav,None,1000,31,2918889,984,157.285
D,5,2762876,vowelstep3.wav,None,1000,31,2920890,320,159.285
D,5,2762876,vowelstep7.wav,None,1000,31,2922890,320,161.285
D,5,2762876,vowelstep3.wav,None,1000,31,2924890,330,163.285
D,5,2762876,sinestep3.wav,None,1000,31,2926890,330,165.285
D,5,2762876,sinestep1.wav,None,1000,31,2928890,330,167.285
D,5,2762876,silence.wav,None,1000,31,2930890,340,169.285
D,5,2762876,sinestep1.wav,None,1000,31,2932890,320,171.285
D,5,2762876,vowelstep1.wav,None,1000,31,2934889,320,173.285
D,5,2762876,vowelstep3.wav,None,1000,31,2936890,320,175.285
D,5,2762876,silence.wav,None,1000,31,2938890,329,177.285
D,5,2762876,sinestep7.wav,None,1000,31,2940890,329,179.285
D,5,2762876,silence.wav,None,1000,31,2942890,326,181.285
D,5,2762876,vowelstep7.wav,None,1000,31,2944890,339,183.285
D,5,2762876,sinestep3.wav,None,1000,31,2946890,313,185.285
D,5,2762876,vowelstep1.wav,None,1000,31,2948890,320,187.285
D,5,2762876,sinestep7.wav,None,1000,31,2950890,314,189.285
D,5,2762876,silence.wav,None,1000,31,2952890,320,191.285
D,5,2762876,sinestep1.wav,None,1000,31,2954891,328,193.285
D,5,2762876,sinestep3.wav,None,1000,31,2956891,325,195.285
D,5,2762876,sinestep5.wav,None,1000,31,2958890,327,197.285
D,5,2762876,vowelstep3.wav,None,1000,31,2960890,316,199.285
D,5,2762876,sinestep5.wav,None,1000,31,2962890,320,201.285
D,5,2762876,sinestep5.wav,None,1000,31,2964890,314,203.285
D,5,2762876,sinestep3.wav,None,1000,31,2966890,318,205.285
D,5,2762876,sinestep3.wav,None,1000,31,2968890,334,207.285
D,5,2762876,sinestep5.wav,None,1000,31,2970890,327,209.285
D,5,2762876,sinestep3_catch.wav,1,214,31,2972891,343,211.285
D,5,2762876,vowelstep7.wav,None,1000,31,2974891,1092,213.285
D,5,2762876,sinestep1.wav,None,1000,31,2976891,317,215.285
D,5,2762876,sinestep7.wav,None,1000,31,2978891,317,217.285
D,5,2762876,vowelstep1.wav,None,1000,31,2980890,332,219.285
D,5,2762876,sinestep5.wav,None,1000,31,2982890,330,221.285
D,5,2762876,silence.wav,None,1000,31,2984890,331,223.285
D,5,2762876,sinestep5_catch.wav,1,273,31,2986890,331,225.285
D,5,2762876,sinestep5.wav,None,1000,31,2988890,1035,227.285
D,5,2762876,silence.wav,None,1000,31,2990891,320,229.285
D,5,2762876,vowelstep7.wav,None,1000,31,2992891,320,231.285
D,5,2762876,sinestep3.wav,None,1000,31,2994891,320,233.285
D,5,2762876,vowelstep5.wav,None,1000,31,2996891,330,235.285
D,5,2762876,vowelstep7.wav,None,1000,31,2998891,327,237.285
D,5,2762876,vowelstep5.wav,None,1000,31,3000891,330,239.285
D,5,2762876,silence.wav,None,1000,31,3002891,310,241.285
D,5,2762876,silence.wav,None,1000,31,3004890,320,243.285
D,5,2762876,silence.wav,None,1000,31,3006891,317,245.285
D,5,2762876,sinestep7.wav,None,1000,31,3008891,319,247.285
D,5,2762876,sinestep5.wav,None,1000,31,3010891,325,249.285
D,5,2762876,sinestep7_catch.wav,1,154,31,3012891,331,251.285
D,5,2762876,vowelstep1.wav,None,1000,31,3014891,1171,253.285
D,5,2762876,vowelstep1.wav,None,1000,31,3016891,311,255.285
D,5,2762876,vowelstep3.wav,None,1000,31,3018891,319,257.285
D,5,2762876,silence.wav,None,1000,31,3020891,319,259.285
D,5,2762876,sinestep5.wav,None,1000,31,3022891,319,261.285
D,5,2762876,vowelstep7.wav,None,1000,31,3024892,329,263.285
D,5,2762876,vowelstep3.wav,None,1000,31,3026892,328,265.285
D,5,2762876,vowelstep7.wav,None,1000,31,3028891,324,267.285
D,5,2762876,vowelstep5.wav,None,1000,31,3030891,333,269.285
D,5,2762876,sinestep1.wav,None,1000,31,3032891,317,271.285
D,5,2762876,sinestep7.wav,None,1000,31,3034891,317,273.285
D,5,2762876,sinestep3.wav,None,1000,31,3036891,314,275.285
D,5,2762876,silence.wav,None,1000,31,3038891,314,277.285
D,5,2762876,sinestep7.wav,None,1000,31,3040891,323,279.285
D,5,2762876,vowelstep5.wav,None,1000,31,3042892,323,281.285
D,5,2762876,sinestep1.wav,None,1000,31,3044892,337,283.285
D,5,2762876,vowelstep1.wav,None,1000,31,3046892,315,285.285
D,5,2762876,sinestep1.wav,None,1000,31,3048892,318,287.285
D,5,2762876,vowelstep5.wav,None,1000,31,3050891,317,289.285
D,5,2762876,silence.wav,None,1000,31,3052891,327,291.285
D,5,2762876,sinestep3.wav,None,1000,31,3054891,326,293.285
D,5,2762876,vowelstep5.wav,None,1000,31,3056891,327,295.285
D,5,2762876,silence.wav,None,1000,31,3058891,337,297.285
D,5,2762876,sinestep3.wav,None,1000,31,3060892,336,299.285
D,5,2762876,vowelstep7.wav,None,1000,31,3062892,332,301.285
D,5,2762876,sinestep7_catch.wav,1,271,31,3064892,317,303.285
D,5,2762876,sinestep5_catch.wav,1,263,31,3066892,1043,305.285
D,5,2762876,sinestep3.wav,None,1000,31,3068892,1062,307.285
D,5,2762876,vowelstep5.wav,None,1000,31,3070892,326,309.285
D,5,2762876,silence.wav,None,1000,31,3072892,335,311.285
D,5,2762876,sinestep3_catch.wav,1,260,31,3074891,335,313.285
D,5,2762876,silence.wav,None,1000,31,3076892,1075,315.285
D,5,2762876,vowelstep7.wav,None,1000,31,3078892,331,317.285
D,5,2762876,silence.wav,None,1000,31,3080892,325,319.285
A,6,3139664,sinestep5_catch.wav,1,560,31,3139676,0,1.285
A,6,3139664,vowelstep1.wav,None,1000,31,3141676,778,3.285
A,6,3139664,vowelstep3.wav,None,1000,31,3143676,319,5.285
A,6,3139664,sinestep1.wav,None,1000,31,3145676,329,7.285
A,6,3139664,sinestep5_catch.wav,1,155,31,3147677,326,9.285
A,6,3139664,sinestep7.wav,None,1000,31,3149677,1172,11.285
A,6,3139664,sinestep3.wav,None,1000,31,3151677,338,13.285
A,6,3139664,silence.wav,None,1000,31,3153676,319,15.285
A,6,3139664,vowelstep7.wav,None,1000,31,3155676,349,17.285
A,6,3139664,sinestep7.wav,None,1000,31,3157676,349,19.285
A,6,3139664,vowelstep5_catch.wav,1,110,31,3159676,329,21.285
A,6,3139664,sinestep7.wav,None,1000,31,3161676,1218,23.285
A,6,3139664,sinestep3.wav,None,1000,31,3163676,330,25.285
A,6,3139664,silence.wav,None,1000,31,3165677,339,27.285
A,6,3139664,sinestep3.wav,None,1000,31,3167677,338,29.285
A,6,3139664,sinestep5_catch.wav,1,416,31,3169677,338,31.285
A,6,3139664,sinestep1.wav,None,1000,31,3171677,926,33.285
A,6,3139664,sinestep1.wav,None,1000,31,3173677,328,35.285
A,6,3139664,sinestep5.wav,None,1000,31,3175677,328,37.285
A,6,3139664,vowelstep3.wav,None,1000,31,3177676,328,39.285
A,6,3139664,vowelstep5.wav,None,1000,31,3179676,338,41.285
A,6,3139664,vowelstep3.wav,None,1000,31,3181677,338,43.285
A,6,3139664,vowelstep1.wav,None,1000,31,3183677,337,45.285
A,6,3139664,vowelstep3.wav,None,1000,31,3185677,337,47.285
A,6,3139664,sinestep3.wav,None,1000,31,3187677,327,49.285
A,6,3139664,sinestep7.wav,None,1000,31,3189677,327,51.285
A,6,3139664,sinestep5.wav,None,1000,31,3191677,327,53.285
A,6,3139664,vowelstep7_catch.wav,None,1000,31,3193677,337,55.285
A,6,3139664,silence.wav,None,1000,31,3195677,337,57.285
A,6,3139664,vowelstep3.wav,None,1000,31,3197677,337,59.285
A,6,3139664,vowelstep1.wav,None,1000,31,3199677,318,61.285
A,6,3139664,silence.wav,None,1000,31,3201677,327,63.285
A,6,3139664,sinestep3.wav,None,1000,31,3203677,326,65.285
A,6,3139664,sinestep7.wav,None,1000,31,3205677,326,67.285
A,6,3139664,sinestep5.wav,None,1000,31,3207677,336,69.285
A,6,3139664,sinestep5.wav,None,1000,31,3209677,336,71.285
A,6,3139664,sinestep7.wav,None,1000,31,3211677,336,73.285
A,6,3139664,sinestep1.wav,None,1000,31,3213677,336,75.285
A,6,3139664,sinestep5.wav,None,1000,31,3215677,326,77.285
A,6,3139664,vowelstep1.wav,None,1000,31,3217678,326,79.285
A,6,3139664,sinestep1.wav,None,1000,31,3219678,325,81.285
A,6,3139664,vowelstep5.wav,None,1000,31,3221678,335,83.285
A,6,3139664,sinestep1.wav,None,1000,31,3223677,335,85.285
A,6,3139664,silence.wav,None,1000,31,3225677,336,87.285
A,6,3139664,vowelstep1.wav,None,1000,31,3227677,346,89.285
A,6,3139664,sinestep3.wav,None,1000,31,3229677,325,91.285
A,6,3139664,vowelstep5.wav,None,1000,31,3231677,325,93.285
A,6,3139664,vowelstep5.wav,None,1000,31,3233677,324,95.285
A,6,3139664,vowelstep5.wav,None,1000,31,3235678,334,97.285
A,6,3139664,vowelstep7.wav,None,1000,31,3237678,334,99.285
A,6,3139664,vowelstep3.wav,None,1000,31,3239678,334,101.285
A,6,3139664,sinestep1.wav,None,1000,31,3241678,333,103.285
A,6,3139664,sinestep1.wav,None,1000,31,3243678,315,105.285
A,6,3139664,vowelstep7.wav,None,1000,31,3245678,323,107.285
A,6,3139664,vowelstep1.wav,None,1000,31,3247677,323,109.285
A,6,3139664,vowelstep7.wav,None,1000,31,3249677,324,111.285
A,6,3139664,silence.wav,None,1000,31,3251678,333,113.285
A,6,3139664,sinestep1.wav,None,1000,31,3253678,332,115.285
A,6,3139664,vowelstep1.wav,None,1000,31,3255678,333,117.285
A,6,3139664,silence.wav,None,1000,31,3257678,322,119.285
A,6,3139664,vowelstep1.wav,None,1000,31,3259678,322,121.285
A,6,3139664,vowelstep3.wav,None,1000,31,3261678,323,123.285
A,6,3139664,vowelstep1.wav,None,1000,31,3263678,322,125.285
A,6,3139664,sinestep7.wav,None,1000,31,3265678,333,127.285
A,6,3139664,silence.wav,None,1000,31,3267678,335,129.285
A,6,3139664,vowelstep1.wav,None,1000,31,3269678,333,131.285
A,6,3139664,silence.wav,None,1000,31,3271678,342,133.285
A,6,3139664,sinestep7.wav,None,1000,31,3273678,321,135.285
A,6,3139664,vowelstep5.wav,None,1000,31,3275678,322,137.285
A,6,3139664,sinestep7.wav,None,1000,31,3277678,319,139.285
A,6,3139664,sinestep3.wav,None,1000,31,3279678,331,141.285
A,6,3139664,vowelstep5.wav,None,1000,31,3281678,332,143.285
A,6,3139664,silence.wav,None,1000,31,3283678,331,145.285
A,6,3139664,sinestep3.wav,None,1000,31,3285678,341,147.285
A,6,3139664,sinestep5.wav,None,1000,31,3287679,321,149.285
A,6,3139664,sinestep3.wav,None,1000,31,3289679,320,151.285
A,6,3139664,vowelstep3.wav,None,1000,31,3291679,320,153.285
A,6,3139664,sinestep3.wav,None,1000,31,3293678,330,155.285
A,6,3139664,vowelstep7_catch.wav,1,266,31,3295678,331,157.285
A,6,3139664,vowelstep7.wav,None,1000,31,3297678,1074,159.285
A,6,3139664,vowelstep5.wav,None,1000,31,3299678,341,161.285
A,6,3139664,sinestep5.wav,None,1000,31,3301678,322,163.285
A,6,3139664,silence.wav,None,1000,31,3303678,319,165.285
A,6,3139664,sinestep5.wav,None,1000,31,3305679,316,167.285
A,6,3139664,vowelstep5_catch.wav,1,392,31,3307679,329,169.285
A,6,3139664,silence.wav,None,1000,31,3309679,934,171.285
A,6,3139664,sinestep7.wav,None,1000,31,3311679,326,173.285
A,6,3139664,sinestep5.wav,None,1000,31,3313679,338,175.285
A,6,3139664,sinestep7.wav,None,1000,31,3315679,318,177.285
A,6,3139664,vowelstep3.wav,None,1000,31,3317678,319,179.285
A,6,3139664,sinestep5.wav,None,1000,31,3319678,319,181.285
A,6,3139664,vowelstep1.wav,None,1000,31,3321679,329,183.285
A,6,3139664,vowelstep5.wav,None,1000,31,3323679,328,185.285
A,6,3139664,sinestep5.wav,None,1000,31,3325679,329,187.285
A,6,3139664,vowelstep1.wav,None,1000,31,3327679,339,189.285
A,6,3139664,silence.wav,None,1000,31,3329679,317,191.285
A,6,3139664,sinestep1.wav,None,1000,31,3331679,319,193.285
A,6,3139664,vowelstep5.wav,None,1000,31,3333679,318,195.285
A,6,3139664,sinestep3.wav,None,1000,31,3335679,328,197.285
A,6,3139664,silence.wav,None,1000,31,3337679,328,199.285
A,6,3139664,vowelstep3.wav,None,1000,31,3339680,328,201.285
A,6,3139664,vowelstep3_catch.wav,1,219,31,3341679,337,203.285
A,6,3139664,vowelstep5.wav,None,1000,31,3343679,1089,205.285
A,6,3139664,vowelstep1_catch.wav,1,331,31,3345679,318,207.285
A,6,3139664,silence.wav,None,1000,31,3347679,986,209.285
A,6,3139664,sinestep3.wav,None,1000,31,3349679,327,211.285
A,6,3139664,vowelstep5.wav,None,1000,31,3351679,327,213.285
A,6,3139664,silence.wav,None,1000,31,3353679,327,215.285
A,6,3139664,sinestep5.wav,None,1000,31,3355679,327,217.285
A,6,3139664,vowelstep7.wav,None,1000,31,3357680,318,219.285
A,6,3139664,silence.wav,None,1000,31,3359680,316,221.285
A,6,3139664,vowelstep3.wav,None,1000,31,3361680,317,223.285
A,6,3139664,sinestep7.wav,None,1000,31,3363679,316,225.285
A,6,3139664,silence.wav,None,1000,31,3365679,325,227.285
A,6,3139664,vowelstep3.wav,None,1000,31,3367679,327,229.285
A,6,3139664,vowelstep5.wav,None,1000,31,3369679,333,231.285
A,6,3139664,vowelstep7.wav,None,1000,31,3371679,338,233.285
A,6,3139664,vowelstep3.wav,None,1000,31,3373679,335,235.285
A,6,3139664,vowelstep5.wav,None,1000,31,3375680,316,237.285
A,6,3139664,sinestep1_catch.wav,1,196,31,3377680,325,239.285
A,6,3139664,sinestep3.wav,None,1000,31,3379680,1129,241.285
A,6,3139664,sinestep1.wav,None,1000,31,3381680,325,243.285
A,6,3139664,sinestep3_catch.wav,1,292,31,3383680,325,245.285
A,6,3139664,sinestep7.wav,None,1000,31,3385680,1042,247.285
A,6,3139664,vowelstep1.wav,None,1000,31,3387679,315,249.285
A,6,3139664,sinestep3.wav,None,1000,31,3389679,335,251.285
A,6,3139664,vowelstep7.wav,None,1000,31,3391680,345,253.285
A,6,3139664,silence.wav,None,1000,31,3393680,324,255.285
A,6,3139664,sinestep1.wav,None,1000,31,3395680,324,257.285
A,6,3139664,silence.wav,None,1000,31,3397680,325,259.285
A,6,3139664,vowelstep5.wav,None,1000,31,3399680,334,261.285
A,6,3139664,sinestep5_catch.wav,1,298,31,3401680,334,263.285
A,6,3139664,vowelstep7.wav,None,1000,31,3403680,1035,265.285
A,6,3139664,sinestep3.wav,None,1000,31,3405680,344,267.285
A,6,3139664,vowelstep1.wav,None,1000,31,3407680,324,269.285
A,6,3139664,vowelstep3.wav,None,1000,31,3409681,324,271.285
A,6,3139664,sinestep7_catch.wav,1,316,31,3411680,323,273.285
A,6,3139664,silence.wav,None,1000,31,3413680,1016,275.285
A,6,3139664,vowelstep7.wav,None,1000,31,3415680,333,277.285
A,6,3139664,sinestep7.wav,None,1000,31,3417680,333,279.285
A,6,3139664,sinestep1.wav,None,1000,31,3419680,332,281.285
A,6,3139664,vowelstep7.wav,None,1000,31,3421680,323,283.285
A,6,3139664,sinestep5.wav,None,1000,31,3423680,323,285.285
A,6,3139664,sinestep5.wav,None,1000,31,3425680,323,287.285
A,6,3139664,sinestep7_catch.wav,1,85,31,3427681,323,289.285
A,6,3139664,sinestep5.wav,None,1000,31,3429681,1246,291.285
A,6,3139664,silence.wav,None,1000,31,3431681,332,293.285
A,6,3139664,vowelstep3.wav,None,1000,31,3433680,343,295.285
A,6,3139664,silence.wav,None,1000,31,3435680,313,297.285
A,6,3139664,vowelstep1.wav,None,1000,31,3437680,322,299.285
A,6,3139664,sinestep1.wav,None,1000,31,3439680,321,301.285
A,6,3139664,sinestep7.wav,None,1000,31,3441680,332,303.285
A,6,3139664,vowelstep7.wav,None,1000,31,3443680,332,305.285
A,6,3139664,sinestep1_catch.wav,1,518,31,3445681,331,307.285
A,6,3139664,silence.wav,None,1000,31,3447681,814,309.285
A,6,3139664,silence.wav,None,1000,31,3449681,321,311.285
A,6,3139664,vowelstep7.wav,None,1000,31,3451681,319,313.285
A,6,3139664,sinestep1.wav,None,1000,31,3453681,320,315.285
A,6,3139664,vowelstep7.wav,None,1000,31,3455681,321,317.285
A,6,3139664,vowelstep7.wav,None,1000,31,3457680,331,319.285
I,7,3516401,vowelstep7.wav,None,1000,31,3516415,0,1.285
I,7,3516401,sinestep1_catch.wav,1,342,31,3518415,325,3.285
I,7,3516401,sinestep3.wav,None,1000,31,3520415,981,5.285
I,7,3516401,silence.wav,None,1000,31,3522415,336,7.285
I,7,3516401,vowelstep7.wav,None,1000,31,3524415,335,9.285
I,7,3516401,sinestep3_catch.wav,1,243,31,3526415,335,11.285
I,7,3516401,vowelstep3.wav,None,1000,31,3528415,1100,13.285
I,7,3516401,vowelstep3.wav,None,1000,31,3530415,324,15.285
I,7,3516401,silence.wav,None,1000,31,3532416,324,17.285
I,7,3516401,vowelstep1.wav,None,1000,31,3534416,323,19.285
I,7,3516401,vowelstep5.wav,None,1000,31,3536415,335,21.285
I,7,3516401,vowelstep7.wav,None,1000,31,3538415,335,23.285
I,7,3516401,sinestep1.wav,None,1000,31,3540415,344,25.285
I,7,3516401,vowelstep1.wav,None,1000,31,3542415,345,27.285
I,7,3516401,sinestep5_catch.wav,1,399,31,3544415,323,29.285
I,7,3516401,sinestep5.wav,None,1000,31,3546415,922,31.285
I,7,3516401,vowelstep1.wav,None,1000,31,3548415,323,33.285
I,7,3516401,sinestep7.wav,None,1000,31,3550416,332,35.285
I,7,3516401,vowelstep3.wav,None,1000,31,3552416,334,37.285
I,7,3516401,vowelstep1.wav,None,1000,31,3554416,332,39.285
I,7,3516401,vowelstep1.wav,None,1000,31,3556416,341,41.285
I,7,3516401,sinestep3.wav,None,1000,31,3558415,324,43.285
I,7,3516401,sinestep5.wav,None,1000,31,3560415,322,45.285
I,7,3516401,sinestep5.wav,None,1000,31,3562415,324,47.285
I,7,3516401,vowelstep3.wav,None,1000,31,3564415,334,49.285
I,7,3516401,silence.wav,None,1000,31,3566416,334,51.285
I,7,3516401,sinestep7_catch.wav,1,426,31,3568416,332,53.285
I,7,3516401,silence.wav,None,1000,31,3570416,909,55.285
I,7,3516401,sinestep1.wav,None,1000,31,3572416,341,57.285
I,7,3516401,vowelstep1.wav,None,1000,31,3574416,322,59.285
I,7,3516401,sinestep1.wav,None,1000,31,3576416,321,61.285
I,7,3516401,sinestep1.wav,None,1000,31,3578416,331,63.285
I,7,3516401,vowelstep7.wav,None,1000,31,3580416,330,65.285
I,7,3516401,sinestep5.wav,None,1000,31,3582415,331,67.285
I,7,3516401,sinestep5_catch.wav,1,357,31,3584416,341,69.285
I,7,3516401,vowelstep7.wav,None,1000,31,3586416,951,71.285
I,7,3516401,vowelstep5.wav,None,1000,31,3588416,321,73.285
I,7,3516401,sinestep3.wav,None,1000,31,3590416,320,75.285
I,7,3516401,vowelstep1.wav,None,1000,31,3592416,329,77.285
I,7,3516401,sinestep3.wav,None,1000,31,3594416,330,79.285
I,7,3516401,sinestep5.wav,None,1000,31,3596416,330,81.285
I,7,3516401,sinestep5.wav,None,1000,31,3598416,329,83.285
I,7,3516401,vowelstep5.wav,None,1000,31,3600416,319,85.285
I,7,3516401,vowelstep7.wav,None,1000,31,3602417,320,87.285
I,7,3516401,sinestep3.wav,None,1000,31,3604417,319,89.285
I,7,3516401,vowelstep3.wav,None,1000,31,3606416,320,91.285
I,7,3516401,sinestep3.wav,None,1000,31,3608416,328,93.285
I,7,3516401,vowelstep5.wav,None,1000,31,3610416,329,95.285
I,7,3516401,sinestep7.wav,None,1000,31,3612416,338,97.285
I,7,3516401,sinestep3_catch.wav,1,781,31,3614416,319,99.285
I,7,3516401,sinestep1_catch.wav,1,298,31,3616416,537,101.285
I,7,3516401,vowelstep3.wav,None,1000,31,3618416,1016,103.285
I,7,3516401,vowelstep3.wav,None,1000,31,3620417,328,105.285
I,7,3516401,vowelstep5.wav,None,1000,31,3622417,326,107.285
I,7,3516401,sinestep5.wav,None,1000,31,3624417,327,109.285
I,7,3516401,vowelstep5.wav,None,1000,31,3626417,327,111.285
I,7,3516401,vowelstep5.wav,None,1000,31,3628417,318,113.285
I,7,3516401,vowelstep1.wav,None,1000,31,3630416,317,115.285
I,7,3516401,vowelstep1_catch.wav,1,332,31,3632416,317,117.285
I,7,3516401,sinestep7.wav,None,1000,31,3634416,983,119.285
I,7,3516401,vowelstep3.wav,None,1000,31,3636417,328,121.285
I,7,3516401,sinestep7.wav,None,1000,31,3638417,326,123.285
I,7,3516401,sinestep7.wav,None,1000,31,3640417,326,125.285
I,7,3516401,vowelstep7.wav,None,1000,31,3642417,336,127.285
I,7,3516401,vowelstep3.wav,None,1000,31,3644417,315,129.285
I,7,3516401,sinestep5.wav,None,1000,31,3646417,316,131.285
I,7,3516401,sinestep5.wav,None,1000,31,3648417,316,133.285
I,7,3516401,vowelstep3.wav,None,1000,31,3650417,326,135.285
I,7,3516401,sinestep5.wav,None,1000,31,3652416,327,137.285
I,7,3516401,sinestep1.wav,None,1000,31,3654417,326,139.285
I,7,3516401,vowelstep7.wav,None,1000,31,3656417,304,141.285
I,7,3516401,silence.wav,None,1000,31,3658417,315,143.285
I,7,3516401,vowelstep7.wav,None,1000,31,3660417,315,145.285
I,7,3516401,silence.wav,None,1000,31,3662417,315,147.285
I,7,3516401,sinestep1.wav,None,1000,31,3664417,325,149.285
I,7,3516401,vowelstep1.wav,None,1000,31,3666417,325,151.285
I,7,3516401,vowelstep3.wav,None,1000,31,3668417,327,153.285
I,7,3516401,silence.wav,None,1000,31,3670417,335,155.285
I,7,3516401,silence.wav,None,1000,31,3672418,315,157.285
I,7,3516401,vowelstep1.wav,None,1000,31,3674418,314,159.285
I,7,3516401,sinestep1.wav,None,1000,31,3676417,314,161.285
I,7,3516401,vowelstep3_catch.wav,1,245,31,3678417,324,163.285
I,7,3516401,sinestep1.wav,None,1000,31,3680417,1077,165.285
I,7,3516401,vowelstep5.wav,None,1000,31,3682417,320,167.285
I,7,3516401,vowelstep5_catch.wav,1,242,31,3684417,335,169.285
I,7,3516401,sinestep1.wav,None,1000,31,3686417,1090,171.285
I,7,3516401,silence.wav,None,1000,31,3688417,334,173.285
I,7,3516401,vowelstep5.wav,None,1000,31,3690418,313,175.285
I,7,3516401,sinestep3.wav,None,1000,31,3692418,322,177.285
I,7,3516401,sinestep3.wav,None,1000,31,3694418,323,179.285
I,7,3516401,silence.wav,None,1000,31,3696418,323,181.285
I,7,3516401,silence.wav,None,1000,31,3698418,332,183.285
I,7,3516401,vowelstep3.wav,None,1000,31,3700417,333,185.285
I,7,3516401,vowelstep7.wav,None,1000,31,3702417,331,187.285
I,7,3516401,vowelstep7.wav,None,1000,31,3704417,343,189.285
I,7,3516401,silence.wav,None,1000,31,3706418,322,191.285
I,7,3516401,sinestep3.wav,None,1000,31,3708418,321,193.285
I,7,3516401,sinestep3.wav,None,1000,31,3710418,323,195.285
I,7,3516401,vowelstep5.wav,None,1000,31,3712418,332,197.285
I,7,3516401,vowelstep1.wav,None,1000,31,3714418,331,199.285
I,7,3516401,vowelstep1.wav,None,1000,31,3716418,332,201.285
I,7,3516401,sinestep5.wav,None,1000,31,3718418,342,203.285
I,7,3516401,silence.wav,None,1000,31,3720418,311,205.285
I,7,3516401,sinestep5.wav,None,1000,31,3722417,321,207.285
I,7,3516401,sinestep7.wav,None,1000,31,3724418,322,209.285
I,7,3516401,sinestep1.wav,None,1000,31,3726418,331,211.285
I,7,3516401,sinestep5.wav,None,1000,31,3728418,331,213.285
I,7,3516401,vowelstep5.wav,None,1000,31,3730418,331,215.285
I,7,3516401,sinestep7.wav,None,1000,31,3732418,328,217.285
I,7,3516401,sinestep5.wav,None,1000,31,3734418,341,219.285
I,7,3516401,sinestep3.wav,None,1000,31,3736418,321,221.285
I,7,3516401,silence.wav,None,1000,31,3738418,321,223.285
I,7,3516401,vowelstep7_catch.wav,1,262,31,3740418,320,225.285
I,7,3516401,sinestep7.wav,None,1000,31,3742419,1068,227.285
I,7,3516401,sinestep7.wav,None,1000,31,3744419,330,229.285
I,7,3516401,sinestep3.wav,None,1000,31,3746418,339,231.285
I,7,3516401,vowelstep3.wav,None,1000,31,3748418,310,233.285
I,7,3516401,silence.wav,None,1000,31,3750418,320,235.285
I,7,3516401,sinestep3.wav,None,1000,31,3752418,320,237.285
I,7,3516401,sinestep5.wav,None,1000,31,3754418,329,239.285
I,7,3516401,silence.wav,None,1000,31,3756418,329,241.285
I,7,3516401,vowelstep3.wav,None,1000,31,3758418,330,243.285
I,7,3516401,sinestep1.wav,None,1000,31,3760419,328,245.285
I,7,3516401,sinestep1.wav,None,1000,31,3762419,308,247.285
I,7,3516401,sinestep7.wav,None,1000,31,3764419,319,249.285
I,7,3516401,vowelstep7.wav,None,1000,31,3766419,319,251.285
I,7,3516401,vowelstep5.wav,None,1000,31,3768419,318,253.285
I,7,3516401,silence.wav,None,1000,31,3770418,328,255.285
I,7,3516401,sinestep3.wav,None,1000,31,3772418,328,257.285
I,7,3516401,vowelstep1.wav,None,1000,31,3774418,329,259.285
I,7,3516401,vowelstep1.wav,None,1000,31,3776419,338,261.285
I,7,3516401,silence.wav,None,1000,31,3778419,318,263.285
I,7,3516401,vowelstep3.wav,None,1000,31,3780419,318,265.285
I,7,3516401,silence.wav,None,1000,31,3782419,317,267.285
I,7,3516401,silence.wav,None,1000,31,3784419,327,269.285
I,7,3516401,sinestep7.wav,None,1000,31,3786419,327,271.285
I,7,3516401,sinestep7.wav,None,1000,31,3788419,327,273.285
I,7,3516401,vowelstep5.wav,None,1000,31,3790419,308,275.285
I,7,3516401,silence.wav,None,1000,31,3792418,317,277.285
I,7,3516401,silence.wav,None,1000,31,3794419,318,279.285
I,7,3516401,sinestep1.wav,None,1000,31,3796419,317,281.285
I,7,3516401,silence.wav,None,1000,31,3798419,326,283.285
I,7,3516401,vowelstep7.wav,None,1000,31,3800419,218,285.285
I,7,3516401,vowelstep5_catch.wav,1,576,31,3802419,327,287.285
I,7,3516401,sinestep7.wav,None,1000,31,3804419,750,289.285
I,7,3516401,sinestep1.wav,None,1000,31,3806419,316,291.285
I,7,3516401,vowelstep3_catch.wav,1,210,31,3808419,316,293.285
I,7,3516401,sinestep1.wav,None,1000,31,3810419,1106,295.285
I,7,3516401,vowelstep7.wav,None,1000,31,3812420,317,297.285
I,7,3516401,sinestep3.wav,None,1000,31,3814420,325,299.285
I,7,3516401,vowelstep5.wav,None,1000,31,3816419,325,301.285
I,7,3516401,vowelstep1_catch.wav,1,256,31,3818419,335,303.285
I,7,3516401,vowelstep7.wav,None,1000,31,3820419,1059,305.285
I,7,3516401,vowelstep5.wav,None,1000,31,3822419,316,307.285
I,7,3516401,sinestep1_catch.wav,1,270,31,3824419,315,309.285
I,7,3516401,silence.wav,None,1000,31,3826419,1046,311.285
I,7,3516401,sinestep7.wav,None,1000,31,3828419,326,313.285
I,7,3516401,silence.wav,None,1000,31,3830420,324,315.285
I,7,3516401,vowelstep1.wav,None,1000,31,3832420,334,317.285
I,7,3516401,sinestep7.wav,None,1000,31,3834420,313,319.285
G,8,3893647,vowelstep3.wav,None,1000,31,3893653,0,1.285
G,8,3893647,vowelstep3.wav,None,1000,31,3895653,329,3.285
G,8,3893647,vowelstep7.wav,None,1000,31,3897653,327,5.285
G,8,3893647,vowelstep3.wav,None,1000,31,3899654,337,7.285
G,8,3893647,sinestep5.wav,None,1000,31,3901654,335,9.285
G,8,3893647,sinestep1_catch.wav,1,396,31,3903654,336,11.285
G,8,3893647,silence.wav,None,1000,31,3905654,948,13.285
G,8,3893647,silence.wav,None,1000,31,3907654,326,15.285
G,8,3893647,vowelstep7.wav,None,1000,31,3909654,326,17.285
G,8,3893647,vowelstep1.wav,None,1000,31,3911654,327,19.285
G,8,3893647,silence.wav,None,1000,31,3913654,336,21.285
G,8,3893647,sinestep1.wav,None,1000,31,3915654,334,23.285
G,8,3893647,vowelstep7.wav,None,1000,31,3917654,335,25.285
G,8,3893647,sinestep5.wav,None,1000,31,3919654,334,27.285
G,8,3893647,sinestep5.wav,None,1000,31,3921654,326,29.285
G,8,3893647,sinestep3.wav,None,1000,31,3923654,325,31.285
G,8,3893647,vowelstep3.wav,None,1000,31,3925654,325,33.285
G,8,3893647,silence.wav,None,1000,31,3927654,334,35.285
G,8,3893647,vowelstep1.wav,None,1000,31,3929654,336,37.285
G,8,3893647,sinestep7.wav,None,1000,31,3931654,332,39.285
G,8,3893647,vowelstep5.wav,None,1000,31,3933655,345,41.285
G,8,3893647,vowelstep3.wav,None,1000,31,3935655,323,43.285
G,8,3893647,sinestep1.wav,None,1000,31,3937655,324,45.285
G,8,3893647,sinestep7.wav,None,1000,31,3939655,324,47.285
G,8,3893647,sinestep1.wav,None,1000,31,3941654,334,49.285
G,8,3893647,sinestep5.wav,None,1000,31,3943654,334,51.285
G,8,3893647,vowelstep1.wav,None,1000,31,3945654,334,53.285
G,8,3893647,silence.wav,None,1000,31,3947654,334,55.285
G,8,3893647,sinestep5.wav,None,1000,31,3949654,313,57.285
G,8,3893647,vowelstep1.wav,None,1000,31,3951655,325,59.285
G,8,3893647,vowelstep3.wav,None,1000,31,3953655,322,61.285
G,8,3893647,sinestep3.wav,None,1000,31,3955655,333,63.285
G,8,3893647,sinestep1.wav,None,1000,31,3957655,333,65.285
G,8,3893647,vowelstep5.wav,None,1000,31,3959655,334,67.285
G,8,3893647,vowelstep3.wav,None,1000,31,3961655,333,69.285
G,8,3893647,vowelstep5.wav,None,1000,31,3963654,343,71.285
G,8,3893647,vowelstep7.wav,None,1000,31,3965654,323,73.285
G,8,3893647,vowelstep5.wav,None,1000,31,3967654,323,75.285
G,8,3893647,vowelstep5.wav,None,1000,31,3969655,322,77.285
G,8,3893647,sinestep3.wav,None,1000,31,3971655,332,79.285
G,8,3893647,sinestep3_catch.wav,1,374,31,3973655,332,81.285
G,8,3893647,sinestep5_catch.wav,1,236,31,3975655,954,83.285
G,8,3893647,sinestep7.wav,None,1000,31,3977655,1075,85.285
G,8,3893647,sinestep7_catch.wav,1,185,31,3979655,317,87.285
G,8,3893647,sinestep7.wav,None,1000,31,3981655,1136,89.285
G,8,3893647,vowelstep1.wav,None,1000,31,3983655,319,91.285
G,8,3893647,vowelstep7.wav,None,1000,31,3985655,331,93.285
G,8,3893647,vowelstep3.wav,None,1000,31,3987655,331,95.285
G,8,3893647,sinestep3.wav,None,1000,31,3989655,331,97.285
G,8,3893647,sinestep1.wav,None,1000,31,3991655,341,99.285
G,8,3893647,sinestep1.wav,None,1000,31,3993655,318,101.285
G,8,3893647,sinestep5.wav,None,1000,31,3995655,349,103.285
G,8,3893647,vowelstep7.wav,None,1000,31,3997655,318,105.285
G,8,3893647,silence.wav,None,1000,31,3999655,329,107.285
G,8,3893647,sinestep3.wav,None,1000,31,4001655,331,109.285
G,8,3893647,vowelstep1.wav,None,1000,31,4003656,338,111.285
G,8,3893647,sinestep3.wav,None,1000,31,4005656,336,113.285
G,8,3893647,sinestep3.wav,None,1000,31,4007656,339,115.285
G,8,3893647,sinestep7.wav,None,1000,31,4009656,339,117.285
G,8,3893647,silence.wav,None,1000,31,4011655,349,119.285
G,8,3893647,vowelstep5.wav,None,1000,31,4013655,330,121.285
G,8,3893647,sinestep1_catch.wav,1,293,31,4015655,330,123.285
G,8,3893647,silence.wav,None,1000,31,4017655,1036,125.285
G,8,3893647,sinestep5.wav,None,1000,31,4019655,340,127.285
G,8,3893647,sinestep7.wav,None,1000,31,4021656,339,129.285
G,8,3893647,sinestep3.wav,None,1000,31,4023656,339,131.285
G,8,3893647,sinestep3.wav,None,1000,31,4025656,349,133.285
G,8,3893647,vowelstep5.wav,None,1000,31,4027656,348,135.285
G,8,3893647,sinestep3.wav,None,1000,31,4029656,329,137.285
G,8,3893647,sinestep3_catch.wav,1,155,31,4031656,329,139.285
G,8,3893647,vowelstep1.wav,None,1000,31,4033656,1183,141.285
G,8,3893647,vowelstep1.wav,None,1000,31,4035655,339,143.285
G,8,3893647,sinestep5.wav,None,1000,31,4037655,339,145.285
G,8,3893647,silence.wav,None,1000,31,4039656,320,147.285
G,8,3893647,sinestep3.wav,None,1000,31,4041656,317,149.285
G,8,3893647,silence.wav,None,1000,31,4043656,327,151.285
G,8,3893647,vowelstep3.wav,None,1000,31,4045656,325,153.285
G,8,3893647,sinestep5.wav,None,1000,31,4047656,338,155.285
G,8,3893647,vowelstep7.wav,None,1000,31,4049656,338,157.285
G,8,3893647,silence.wav,None,1000,31,4051656,337,159.285
G,8,3893647,sinestep5_catch.wav,1,956,31,4053656,337,161.285
G,8,3893647,vowelstep5.wav,None,1000,31,4055656,369,163.285
G,8,3893647,silence.wav,None,1000,31,4057656,327,165.285
G,8,3893647,vowelstep7.wav,None,1000,31,4059656,323,167.285
G,8,3893647,vowelstep1.wav,None,1000,31,4061656,337,169.285
G,8,3893647,vowelstep1.wav,None,1000,31,4063656,335,171.285
G,8,3893647,vowelstep1.wav,None,1000,31,4065656,337,173.285
G,8,3893647,sinestep5.wav,None,1000,31,4067656,346,175.285
G,8,3893647,vowelstep3.wav,None,1000,31,4069656,317,177.285
G,8,3893647,sinestep1.wav,None,1000,31,4071656,326,179.285
G,8,3893647,vowelstep1.wav,None,1000,31,4073657,325,181.285
G,8,3893647,sinestep1.wav,None,1000,31,4075657,335,183.285
G,8,3893647,sinestep7.wav,None,1000,31,4077657,333,185.285
G,8,3893647,sinestep7.wav,None,1000,31,4079657,335,187.285
G,8,3893647,sinestep3.wav,None,1000,31,4081656,335,189.285
G,8,3893647,sinestep5.wav,None,1000,31,4083656,325,191.285
G,8,3893647,silence.wav,None,1000,31,4085656,326,193.285
G,8,3893647,sinestep7_catch.wav,1,104,31,4087656,325,195.285
G,8,3893647,vowelstep7_catch.wav,1,910,31,4089656,1221,197.285
G,8,3893647,sinestep7.wav,None,1000,31,4091657,426,199.285
G,8,3893647,silence.wav,None,1000,31,4093657,334,201.285
G,8,3893647,sinestep7.wav,None,1000,31,4095657,344,203.285
G,8,3893647,sinestep3.wav,None,1000,31,4097657,344,205.285
G,8,3893647,vowelstep7.wav,None,1000,31,4099657,324,207.285
G,8,3893647,sinestep1.wav,None,1000,31,4101657,325,209.285
G,8,3893647,silence.wav,None,1000,31,4103657,324,211.285
G,8,3893647,silence.wav,None,1000,31,4105656,334,213.285
G,8,3893647,vowelstep7.wav,None,1000,31,4107656,335,215.285
G,8,3893647,vowelstep5.wav,None,1000,31,4109657,335,217.285
G,8,3893647,sinestep7.wav,None,1000,31,4111657,315,219.285
G,8,3893647,vowelstep5.wav,None,1000,31,4113657,323,221.285
G,8,3893647,vowelstep5_catch.wav,1,234,31,4115657,323,223.285
G,8,3893647,vowelstep7.wav,None,1000,31,4117657,1088,225.285
G,8,3893647,silence.wav,None,1000,31,4119657,333,227.285
G,8,3893647,silence.wav,None,1000,31,4121657,333,229.285
G,8,3893647,sinestep1.wav,None,1000,31,4123657,329,231.285
G,8,3893647,silence.wav,None,1000,31,4125657,344,233.285
G,8,3893647,vowelstep7.wav,None,1000,31,4127657,321,235.285
G,8,3893647,vowelstep5.wav,None,1000,31,4129657,318,237.285
G,8,3893647,vowelstep3.wav,None,1000,31,4131657,323,239.285
G,8,3893647,vowelstep3_catch.wav,None,1000,31,4133657,322,241.285
G,8,3893647,sinestep1.wav,None,1000,31,4135657,331,243.285
G,8,3893647,silence.wav,None,1000,31,4137657,329,245.285
G,8,3893647,sinestep7.wav,None,1000,31,4139657,312,247.285
G,8,3893647,sinestep1.wav,None,1000,31,4141657,323,249.285
G,8,3893647,sinestep3.wav,None,1000,31,4143658,321,251.285
G,8,3893647,vowelstep3.wav,None,1000,31,4145658,322,253.285
G,8,3893647,vowelstep1_catch.wav,1,282,31,4147658,331,255.285
G,8,3893647,sinestep7.wav,None,1000,31,4149658,1048,257.285
G,8,3893647,silence.wav,None,1000,31,4151657,332,259.285
G,8,3893647,sinestep5.wav,None,1000,31,4153657,341,261.285
G,8,3893647,sinestep5.wav,None,1000,31,4155657,321,263.285
G,8,3893647,vowelstep5.wav,None,1000,31,4157657,321,265.285
G,8,3893647,sinestep5.wav,None,1000,31,4159657,320,267.285
G,8,3893647,sinestep7.wav,None,1000,31,4161658,324,269.285
G,8,3893647,silence.wav,None,1000,31,4163658,330,271.285
G,8,3893647,vowelstep7_catch.wav,1,336,31,4165658,329,273.285
G,8,3893647,vowelstep5.wav,None,1000,31,4167658,1003,275.285
G,8,3893647,silence.wav,None,1000,31,4169658,320,277.285
G,8,3893647,sinestep3.wav,None,1000,31,4171658,321,279.285
G,8,3893647,vowelstep5.wav,None,1000,31,4173658,320,281.285
G,8,3893647,silence.wav,None,1000,31,4175657,330,283.285
G,8,3893647,vowelstep1.wav,None,1000,31,4177657,330,285.285
G,8,3893647,sinestep1.wav,None,1000,31,4179658,330,287.285
G,8,3893647,vowelstep3.wav,None,1000,31,4181658,328,289.285
G,8,3893647,vowelstep7.wav,None,1000,31,4183658,310,291.285
G,8,3893647,vowelstep7.wav,None,1000,31,4185658,319,293.285
G,8,3893647,sinestep1.wav,None,1000,31,4187658,316,295.285
G,8,3893647,vowelstep5.wav,None,1000,31,4189658,319,297.285
G,8,3893647,silence.wav,None,1000,31,4191658,327,299.285
G,8,3893647,sinestep1.wav,None,1000,31,4193658,329,301.285
G,8,3893647,vowelstep7.wav,None,1000,31,4195659,328,303.285
G,8,3893647,vowelstep5_catch.wav,1,242,31,4197658,338,305.285
G,8,3893647,vowelstep3.wav,None,1000,31,4199658,1073,307.285
G,8,3893647,vowelstep3_catch.wav,1,387,31,4201658,318,309.285
G,8,3893647,sinestep7.wav,None,1000,31,4203658,929,311.285
G,8,3893647,sinestep5.wav,None,1000,31,4205658,328,313.285
G,8,3893647,vowelstep1.wav,None,1000,31,4207658,328,315.285
G,8,3893647,vowelstep3.wav,None,1000,31,4209658,338,317.285
G,8,3893647,vowelstep1.wav,None,1000,31,4211658,309,319.285
E,9,4269087,vowelstep7.wav,None,1000,31,4269093,0,1.285
E,9,4269087,sinestep3.wav,None,1000,31,4271093,334,3.285
E,9,4269087,sinestep5.wav,None,1000,31,4273093,332,5.285
E,9,4269087,sinestep1.wav,None,1000,31,4275093,313,7.285
E,9,4269087,sinestep5.wav,None,1000,31,4277092,323,9.285
E,9,4269087,silence.wav,None,1000,31,4279092,324,11.285
E,9,4269087,vowelstep1.wav,None,1000,31,4281092,323,13.285
E,9,4269087,vowelstep7.wav,None,1000,31,4283093,333,15.285
E,9,4269087,vowelstep1.wav,None,1000,31,4285093,332,17.285
E,9,4269087,sinestep1_catch.wav,1,224,31,4287093,332,19.285
E,9,4269087,vowelstep5.wav,None,1000,31,4289093,1107,21.285
E,9,4269087,sinestep5.wav,None,1000,31,4291093,323,23.285
E,9,4269087,vowelstep5.wav,None,1000,31,4293093,322,25.285
E,9,4269087,vowelstep3.wav,None,1000,31,4295093,322,27.285
E,9,4269087,sinestep1.wav,None,1000,31,4297093,323,29.285
E,9,4269087,vowelstep5.wav,None,1000,31,4299093,330,31.285
E,9,4269087,silence.wav,None,1000,31,4301093,332,33.285
E,9,4269087,silence.wav,None,1000,31,4303093,340,35.285
E,9,4269087,sinestep3.wav,None,1000,31,4305093,340,37.285
E,9,4269087,sinestep3.wav,None,1000,31,4307093,321,39.285
E,9,4269087,sinestep3.wav,None,1000,31,4309093,341,41.285
E,9,4269087,sinestep1.wav,None,1000,31,4311093,331,43.285
E,9,4269087,vowelstep1.wav,None,1000,31,4313093,331,45.285
E,9,4269087,sinestep1.wav,None,1000,31,4315093,332,47.285
E,9,4269087,vowelstep7.wav,None,1000,31,4317093,341,49.285
E,9,4269087,vowelstep5.wav,None,1000,31,4319094,340,51.285
E,9,4269087,sinestep7.wav,None,1000,31,4321094,321,53.285
E,9,4269087,sinestep1.wav,None,1000,31,4323093,321,55.285
E,9,4269087,vowelstep5.wav,None,1000,31,4325093,321,57.285
E,9,4269087,sinestep3.wav,None,1000,31,4327093,330,59.285
E,9,4269087,vowelstep1.wav,None,1000,31,4329093,329,61.285
E,9,4269087,vowelstep5.wav,None,1000,31,4331093,338,63.285
E,9,4269087,vowelstep3.wav,None,1000,31,4333093,338,65.285
E,9,4269087,sinestep1.wav,None,1000,31,4335093,340,67.285
E,9,4269087,vowelstep3.wav,None,1000,31,4337094,339,69.285
E,9,4269087,silence.wav,None,1000,31,4339094,329,71.285
E,9,4269087,vowelstep3.wav,None,1000,31,4341094,329,73.285
E,9,4269087,sinestep3_catch.wav,1,233,31,4343094,329,75.285
E,9,4269087,sinestep3.wav,None,1000,31,4345094,1106,77.285
E,9,4269087,vowelstep3.wav,None,1000,31,4347093,340,79.285
E,9,4269087,vowelstep7.wav,None,1000,31,4349093,339,81.285
E,9,4269087,silence.wav,None,1000,31,4351093,348,83.285
E,9,4269087,sinestep3.wav,None,1000,31,4353094,329,85.285
E,9,4269087,silence.wav,None,1000,31,4355094,328,87.285
E,9,4269087,sinestep1.wav,None,1000,31,4357094,328,89.285
E,9,4269087,sinestep5_catch.wav,1,173,31,4359094,328,91.285
E,9,4269087,vowelstep3.wav,None,1000,31,4361094,1163,93.285
E,9,4269087,sinestep5.wav,None,1000,31,4363094,338,95.285
E,9,4269087,vowelstep7.wav,None,1000,31,4365094,338,97.285
E,9,4269087,sinestep1.wav,None,1000,31,4367094,318,99.285
E,9,4269087,sinestep5.wav,None,1000,31,4369093,328,101.285
E,9,4269087,sinestep5.wav,None,1000,31,4371094,328,103.285
E,9,4269087,vowelstep7.wav,None,1000,31,4373094,326,105.285
E,9,4269087,vowelstep3.wav,None,1000,31,4375094,335,107.285
E,9,4269087,vowelstep7.wav,None,1000,31,4377094,336,109.285
E,9,4269087,sinestep5.wav,None,1000,31,4379094,337,111.285
E,9,4269087,vowelstep3.wav,None,1000,31,4381094,338,113.285
E,9,4269087,vowelstep7.wav,None,1000,31,4383094,328,115.285
E,9,4269087,sinestep3.wav,None,1000,31,4385094,327,117.285
E,9,4269087,vowelstep7.wav,None,1000,31,4387094,328,119.285
E,9,4269087,silence.wav,None,1000,31,4389095,337,121.285
E,9,4269087,silence.wav,None,1000,31,4391095,336,123.285
E,9,4269087,sinestep7.wav,None,1000,31,4393094,336,125.285
E,9,4269087,sinestep7_catch.wav,1,216,31,4395094,311,127.285
E,9,4269087,sinestep7.wav,None,1000,31,4397094,1109,129.285
E,9,4269087,silence.wav,None,1000,31,4399094,326,131.285
E,9,4269087,sinestep7_catch.wav,1,339,31,4401094,325,133.285
E,9,4269087,sinestep7.wav,None,1000,31,4403094,996,135.285
E,9,4269087,sinestep5_catch.wav,1,210,31,4405094,334,137.285
E,9,4269087,sinestep1.wav,None,1000,31,4407095,1124,139.285
E,9,4269087,sinestep1.wav,None,1000,31,4409095,343,141.285
E,9,4269087,sinestep1.wav,None,1000,31,4411095,325,143.285
E,9,4269087,sinestep3.wav,None,1000,31,4413095,325,145.285
E,9,4269087,vowelstep5.wav,None,1000,31,4415095,326,147.285
E,9,4269087,silence.wav,None,1000,31,4417094,335,149.285
E,9,4269087,sinestep3_catch.wav,1,235,31,4419094,334,151.285
E,9,4269087,silence.wav,None,1000,31,4421094,1099,153.285
E,9,4269087,sinestep7.wav,None,1000,31,4423095,344,155.285
E,9,4269087,sinestep5.wav,None,1000,31,4425095,313,157.285
E,9,4269087,silence.wav,None,1000,31,4427095,324,159.285
E,9,4269087,vowelstep5.wav,None,1000,31,4429095,324,161.285
E,9,4269087,vowelstep1.wav,None,1000,31,4431095,334,163.285
E,9,4269087,vowelstep3.wav,None,1000,31,4433095,334,165.285
E,9,4269087,sinestep5.wav,None,1000,31,4435095,331,167.285
E,9,4269087,sinestep7.wav,None,1000,31,4437095,333,169.285
E,9,4269087,vowelstep1.wav,None,1000,31,4439094,314,171.285
E,9,4269087,vowelstep7.wav,None,1000,31,4441095,324,173.285
E,9,4269087,sinestep3.wav,None,1000,31,4443095,321,175.285
E,9,4269087,silence.wav,None,1000,31,4445095,333,177.285
E,9,4269087,sinestep1_catch.wav,1,185,31,4447095,330,179.285
E,9,4269087,sinestep7.wav,None,1000,31,4449095,1147,181.285
E,9,4269087,vowelstep1.wav,None,1000,31,4451095,333,183.285
E,9,4269087,sinestep5.wav,None,1000,31,4453095,314,185.285
E,9,4269087,sinestep5.wav,None,1000,31,4455095,323,187.285
E,9,4269087,vowelstep1.wav,None,1000,31,4457095,321,189.285
E,9,4269087,sinestep7.wav,None,1000,31,4459096,323,191.285
E,9,4269087,sinestep3.wav,None,1000,31,4461096,330,193.285
E,9,4269087,sinestep7.wav,None,1000,31,4463095,332,195.285
E,9,4269087,silence.wav,None,1000,31,4465095,332,197.285
E,9,4269087,vowelstep1.wav,None,1000,31,4467095,310,199.285
E,9,4269087,sinestep1.wav,None,1000,31,4469095,323,201.285
E,9,4269087,vowelstep1.wav,None,1000,31,4471095,322,203.285
E,9,4269087,vowelstep1.wav,None,1000,31,4473095,322,205.285
E,9,4269087,vowelstep1_catch.wav,1,289,31,4475095,332,207.285
E,9,4269087,vowelstep1.wav,None,1000,31,4477096,1041,209.285
E,9,4269087,vowelstep1.wav,None,1000,31,4479096,331,211.285
E,9,4269087,silence.wav,None,1000,31,4481096,341,213.285
E,9,4269087,sinestep7.wav,None,1000,31,4483096,321,215.285
E,9,4269087,vowelstep7.wav,None,1000,31,4485096,321,217.285
E,9,4269087,vowelstep3_catch.wav,1,235,31,4487095,321,219.285
E,9,4269087,vowelstep5.wav,None,1000,31,4489095,1093,221.285
E,9,4269087,sinestep3.wav,None,1000,31,4491095,318,223.285
E,9,4269087,silence.wav,None,1000,31,4493096,338,225.285
E,9,4269087,sinestep1.wav,None,1000,31,4495096,340,227.285
E,9,4269087,sinestep5.wav,None,1000,31,4497096,320,229.285
E,9,4269087,sinestep5.wav,None,1000,31,4499096,315,231.285
E,9,4269087,sinestep3.wav,None,1000,31,4501096,320,233.285
E,9,4269087,sinestep5.wav,None,1000,31,4503096,328,235.285
E,9,4269087,vowelstep3.wav,None,1000,31,4505096,330,237.285
E,9,4269087,sinestep7.wav,None,1000,31,4507096,329,239.285
E,9,4269087,sinestep7.wav,None,1000,31,4509095,339,241.285
E,9,4269087,silence.wav,None,1000,31,4511096,319,243.285
E,9,4269087,sinestep3.wav,None,1000,31,4513096,319,245.285
E,9,4269087,sinestep3.wav,None,1000,31,4515096,320,247.285
E,9,4269087,vowelstep3.wav,None,1000,31,4517096,328,249.285
E,9,4269087,silence.wav,None,1000,31,4519096,327,251.285
E,9,4269087,sinestep7.wav,None,1000,31,4521096,328,253.285
E,9,4269087,silence.wav,None,1000,31,4523096,338,255.285
E,9,4269087,vowelstep7.wav,None,1000,31,4525096,319,257.285
E,9,4269087,vowelstep3.wav,None,1000,31,4527096,317,259.285
E,9,4269087,silence.wav,None,1000,31,4529097,316,261.285
E,9,4269087,vowelstep3.wav,None,1000,31,4531097,318,263.285
E,9,4269087,vowelstep1.wav,None,1000,31,4533096,327,265.285
E,9,4269087,vowelstep5.wav,None,1000,31,4535096,327,267.285
E,9,4269087,silence.wav,None,1000,31,4537096,338,269.285
E,9,4269087,vowelstep3.wav,None,1000,31,4539096,337,271.285
E,9,4269087,sinestep1.wav,None,1000,31,4541096,335,273.285
E,9,4269087,vowelstep5_catch.wav,1,154,31,4543096,337,275.285
E,9,4269087,sinestep7.wav,None,1000,31,4545096,1173,277.285
E,9,4269087,sinestep7.wav,None,1000,31,4547097,326,279.285
E,9,4269087,vowelstep7.wav,None,1000,31,4549097,327,281.285
E,9,4269087,silence.wav,None,1000,31,4551097,336,283.285
E,9,4269087,sinestep5.wav,None,1000,31,4553097,336,285.285
E,9,4269087,silence.wav,None,1000,31,4555097,316,287.285
E,9,4269087,silence.wav,None,1000,31,4557096,316,289.285
E,9,4269087,vowelstep5.wav,None,1000,31,4559096,326,291.285
E,9,4269087,vowelstep5.wav,None,1000,31,4561096,327,293.285
E,9,4269087,silence.wav,None,1000,31,4563097,322,295.285
E,9,4269087,vowelstep5.wav,None,1000,31,4565097,335,297.285
E,9,4269087,vowelstep7_catch.wav,1,260,31,4567097,334,299.285
E,9,4269087,vowelstep7_catch.wav,1,506,31,4569097,1074,301.285
E,9,4269087,vowelstep5.wav,None,1000,31,4571097,829,303.285
E,9,4269087,sinestep1.wav,None,1000,31,4573097,325,305.285
E,9,4269087,vowelstep3.wav,None,1000,31,4575097,325,307.285
E,9,4269087,vowelstep5_catch.wav,1,425,31,4577097,325,309.285
E,9,4269087,vowelstep7.wav,None,1000,31,4579097,895,311.285
E,9,4269087,vowelstep5.wav,None,1000,31,4581097,336,313.285
E,9,4269087,vowelstep7.wav,None,1000,31,4583097,332,315.285
E,9,4269087,vowelstep1.wav,None,1000,31,4585097,334,317.285
E,9,4269087,vowelstep3_catch.wav,1,204,31,4587097,315,319.285