block,count_main_sequence,first_trial_timestamp,fname,response_catch_response,response_time_catch_response,subject_nr,time_stimulus,time_to_pad,timing
P,NA,240588,vowelstep1_catch.wav,None,1000,28,240601,0,
P,NA,240588,sinestep7_catch.wav,None,1000,28,242601,377,
P,NA,240588,vowelstep5_catch.wav,None,1000,28,244602,430,
P,NA,240588,sinestep7.wav,None,1000,28,246602,440,
P,NA,240588,sinestep7.wav,None,1000,28,248602,440,
P,NA,240588,sinestep3.wav,None,1000,28,250602,440,
P,NA,240588,sinestep1.wav,None,1000,28,252602,440,
P,NA,240588,vowelstep7.wav,None,1000,28,254602,420,
P,NA,240588,vowelstep3.wav,None,1000,28,256601,431,
P,NA,240588,silence.wav,None,1000,28,258601,430,
P,NA,240588,sinestep1.wav,None,1000,28,260601,460,
P,NA,240588,vowelstep1.wav,None,1000,28,262602,441,
P,NA,240588,sinestep5.wav,None,1000,28,264602,439,
P,NA,240588,sinestep1.wav,None,1000,28,266602,439,
P,NA,240588,sinestep1.wav,None,1000,28,268602,449,
P,NA,240588,vowelstep1.wav,None,1000,28,270602,449,
P,NA,240588,silence.wav,None,1000,28,272602,447,
P,NA,240588,silence.wav,None,1000,28,274602,459,
P,NA,240588,silence.wav,None,1000,28,276602,439,
P,NA,240588,sinestep3_catch.wav,None,1000,28,278602,439,
P,NA,240588,vowelstep7.wav,1,558,28,280602,439,
P,NA,240588,silence.wav,None,1000,28,282602,881,
P,NA,240588,vowelstep7.wav,None,1000,28,284602,448,
P,NA,240588,vowelstep3.wav,None,1000,28,286602,448,
P,NA,240588,silence.wav,None,1000,28,288602,458,
P,NA,240588,vowelstep1.wav,None,1000,28,290602,429,
P,NA,240588,sinestep3.wav,None,1000,28,292602,438,
P,NA,240588,vowelstep1.wav,None,1000,28,294602,438,
P,NA,240588,silence.wav,1,55,28,296602,433,
P,NA,240588,sinestep7.wav,None,1000,28,298603,1385,
P,NA,240588,sinestep5_catch.wav,None,1000,28,300603,446,
P,NA,240588,silence.wav,None,1000,28,302603,455,
P,NA,240588,sinestep7.wav,None,1000,28,304602,425,
P,NA,240588,sinestep5.wav,None,1000,28,306602,436,
P,NA,240588,sinestep3.wav,1,264,28,308602,436,
P,NA,240588,sinestep1_catch.wav,None,1000,28,310602,1181,
P,NA,240588,vowelstep3_catch.wav,None,1000,28,312602,446,
P,NA,240588,vowelstep5_catch.wav,None,1000,28,314603,446,
P,NA,240588,vowelstep7.wav,1,363,28,316603,445,
P,NA,240588,silence.wav,None,1000,28,318603,1092,
P,NA,240588,vowelstep7_catch.wav,None,1000,28,320603,435,
P,NA,240588,vowelstep3.wav,1,815,28,322603,435,
P,NA,240588,silence.wav,None,1000,28,324603,621,
P,NA,240588,sinestep7_catch.wav,None,1000,28,326603,445,
P,NA,240588,sinestep7.wav,None,1000,28,328602,445,
P,NA,240588,vowelstep5.wav,None,1000,28,330602,444,
P,NA,240588,vowelstep3.wav,1,383,28,332603,425,
P,NA,240588,sinestep5.wav,None,1000,28,334603,1049,
P,NA,240588,sinestep5_catch.wav,None,1000,28,336603,434,
P,NA,240588,sinestep3.wav,None,1000,28,338603,435,
P,NA,240588,silence.wav,None,1000,28,340603,444,
P,NA,240588,vowelstep7.wav,None,1000,28,342603,445,
P,NA,240588,sinestep3_catch.wav,None,1000,28,344603,445,
P,NA,240588,vowelstep5.wav,None,1000,28,346603,455,
P,NA,240588,silence.wav,None,1000,28,348603,434,
P,NA,240588,sinestep1.wav,None,1000,28,350604,433,
P,NA,240588,vowelstep1.wav,None,1000,28,352603,434,
P,NA,240588,silence.wav,None,1000,28,354603,443,
P,NA,240588,silence.wav,None,1000,28,356603,443,
P,NA,240588,silence.wav,None,1000,28,358603,453,
P,NA,240588,sinestep1_catch.wav,None,1000,28,360603,454,
P,NA,240588,sinestep1.wav,None,1000,28,362603,430,
P,NA,240588,silence.wav,None,1000,28,364603,433,
P,NA,240588,vowelstep1_catch.wav,None,1000,28,366603,433,
P,NA,240588,vowelstep5.wav,None,1000,28,368604,442,
P,NA,240588,sinestep5.wav,None,1000,28,370604,443,
P,NA,240588,vowelstep3.wav,None,1000,28,372604,442,
P,NA,240588,silence.wav,None,1000,28,374604,453,
P,NA,240588,silence.wav,None,1000,28,376603,422,
P,NA,240588,sinestep7.wav,None,1000,28,378603,433,
P,NA,240588,vowelstep5.wav,None,1000,28,380603,433,
P,NA,240588,silence.wav,None,1000,28,382603,442,
P,NA,240588,vowelstep3_catch.wav,None,1000,28,384604,442,
P,NA,240588,silence.wav,None,1000,28,386604,442,
P,NA,240588,vowelstep5.wav,None,1000,28,388604,441,
P,NA,240588,vowelstep5_catch.wav,None,1000,28,390604,432,
P,NA,240588,vowelstep7_catch.wav,None,1000,28,392604,431,
P,NA,240588,sinestep3.wav,None,1000,28,394604,431,
P,NA,240588,vowelstep5.wav,None,1000,28,396604,428,
P,NA,240588,vowelstep3.wav,None,1000,28,398604,441,
P,NA,240588,silence.wav,None,1000,28,400604,441,
P,NA,240588,sinestep3.wav,None,1000,28,402604,451,
P,NA,240588,silence.wav,None,1000,28,404604,420,
P,NA,240588,sinestep7_catch.wav,None,1000,28,406604,430,
P,NA,240588,sinestep5_catch.wav,None,1000,28,408604,429,
P,NA,240588,sinestep5.wav,None,1000,28,410604,440,
P,NA,240588,sinestep5.wav,None,1000,28,412604,439,
P,NA,240588,vowelstep7.wav,None,1000,28,414604,440,
P,NA,240588,sinestep3_catch.wav,None,1000,28,416604,439,
P,NA,240588,vowelstep1.wav,None,1000,28,418604,430,
B,0,888942,vowelstep5.wav,None,1000,28,888961,0,1.285
B,0,888942,silence.wav,None,1000,28,890961,321,3.285
B,0,888942,sinestep7.wav,None,1000,28,892946,336,5.285
B,0,888942,vowelstep1_catch.wav,1,235,28,894962,354,7.285
B,0,888942,vowelstep7.wav,None,1000,28,896962,1100,9.285
B,0,888942,vowelstep3.wav,None,1000,28,898945,316,11.285
B,0,888942,vowelstep7.wav,None,1000,28,900945,346,13.285
B,0,888942,vowelstep5.wav,None,1000,28,902945,345,15.285
B,0,888942,vowelstep7.wav,None,1000,28,904945,356,17.285
B,0,888942,vowelstep3.wav,None,1000,28,906962,355,19.285
B,0,888942,silence.wav,None,1000,28,908946,335,21.285
B,0,888942,silence.wav,None,1000,28,910946,363,23.285
B,0,888942,sinestep5.wav,None,1000,28,912946,344,25.285
B,0,888942,sinestep1.wav,None,1000,28,914946,344,27.285
B,0,888942,vowelstep7.wav,None,1000,28,916946,343,29.285
B,0,888942,sinestep5.wav,None,1000,28,918945,352,31.285
B,0,888942,vowelstep1.wav,None,1000,28,920945,353,33.285
B,0,888942,vowelstep7.wav,None,1000,28,922945,352,35.285
B,0,888942,vowelstep3.wav,None,1000,28,924962,363,37.285
B,0,888942,sinestep5.wav,None,1000,28,926946,344,39.285
B,0,888942,vowelstep1.wav,None,1000,28,928946,342,41.285
B,0,888942,sinestep3.wav,None,1000,28,930946,343,43.285
B,0,888942,vowelstep5.wav,None,1000,28,932946,351,45.285
B,0,888942,vowelstep7.wav,None,1000,28,934946,353,47.285
B,0,888942,vowelstep3.wav,None,1000,28,936946,353,49.285
B,0,888942,sinestep7.wav,None,1000,28,938946,364,51.285
B,0,888942,sinestep3.wav,None,1000,28,940946,342,53.285
B,0,888942,sinestep1.wav,None,1000,28,942962,343,55.285
B,0,888942,sinestep1.wav,None,1000,28,944946,323,57.285
B,0,888942,sinestep5.wav,None,1000,28,946946,352,59.285
B,0,888942,vowelstep5.wav,None,1000,28,948946,352,61.285
B,0,888942,vowelstep3_catch.wav,None,1000,28,950946,353,63.285
B,0,888942,vowelstep7.wav,None,1000,28,952946,362,65.285
B,0,888942,sinestep1.wav,None,1000,28,954946,340,67.285
B,0,888942,vowelstep5.wav,None,1000,28,956946,342,69.285
B,0,888942,vowelstep5_catch.wav,1,194,28,958946,342,71.285
B,0,888942,vowelstep7.wav,None,1000,28,960962,1148,73.285
B,0,888942,sinestep3.wav,None,1000,28,962947,321,75.285
B,0,888942,vowelstep7_catch.wav,1,315,28,964947,351,77.285
B,0,888942,sinestep5.wav,None,1000,28,966947,1033,79.285
B,0,888942,vowelstep5.wav,None,1000,28,968946,341,81.285
B,0,888942,silence.wav,None,1000,28,970946,341,83.285
B,0,888942,silence.wav,None,1000,28,972946,341,85.285
B,0,888942,vowelstep3.wav,None,1000,28,974946,340,87.285
B,0,888942,silence.wav,None,1000,28,976946,351,89.285
B,0,888942,sinestep1.wav,None,1000,28,978947,352,91.285
B,0,888942,sinestep1.wav,None,1000,28,980947,350,93.285
B,0,888942,sinestep5.wav,1,441,28,982947,330,95.285
B,0,888942,vowelstep7.wav,None,1000,28,984947,896,97.285
B,0,888942,sinestep5.wav,None,1000,28,986947,338,99.285
B,0,888942,sinestep5.wav,None,1000,28,988947,350,101.285
B,0,888942,silence.wav,None,1000,28,990947,346,103.285
B,0,888942,vowelstep1.wav,None,1000,28,992946,349,105.285
B,0,888942,silence.wav,None,1000,28,994946,349,107.285
B,0,888942,sinestep1.wav,None,1000,28,996947,359,109.285
B,0,888942,vowelstep7.wav,None,1000,28,998947,340,111.285
B,0,888942,silence.wav,None,1000,28,1000947,338,113.285
B,0,888942,sinestep1.wav,None,1000,28,1002947,339,115.285
B,0,888942,vowelstep3.wav,None,1000,28,1004947,349,117.285
B,0,888942,vowelstep5.wav,None,1000,28,1006947,350,119.285
B,0,888942,silence.wav,None,1000,28,1008947,349,121.285
B,0,888942,sinestep3.wav,None,1000,28,1010947,330,123.285
B,0,888942,sinestep5.wav,None,1000,28,1012947,340,125.285
B,0,888942,silence.wav,None,1000,28,1014948,339,127.285
B,0,888942,vowelstep5.wav,None,1000,28,1016947,348,129.285
B,0,888942,sinestep3.wav,None,1000,28,1018947,350,131.285
B,0,888942,sinestep5.wav,None,1000,28,1020947,348,133.285
B,0,888942,sinestep5.wav,None,1000,28,1022947,348,135.285
B,0,888942,sinestep7.wav,1,226,28,1024947,358,137.285
B,0,888942,sinestep7.wav,1,504,28,1026947,1111,139.285
B,0,888942,vowelstep5.wav,None,1000,28,1028947,833,141.285
B,0,888942,sinestep1.wav,None,1000,28,1030947,339,143.285
B,0,888942,vowelstep7.wav,None,1000,28,1032948,346,145.285
B,0,888942,sinestep7.wav,None,1000,28,1034948,347,147.285
B,0,888942,vowelstep5.wav,None,1000,28,1036948,347,149.285
B,0,888942,vowelstep1.wav,None,1000,28,1038948,358,151.285
B,0,888942,sinestep3.wav,None,1000,28,1040947,338,153.285
B,0,888942,silence.wav,None,1000,28,1042947,337,155.285
B,0,888942,silence.wav,None,1000,28,1044947,338,157.285
B,0,888942,sinestep7_catch.wav,1,262,28,1046947,338,159.285
B,0,888942,vowelstep5.wav,None,1000,28,1048948,1084,161.285
B,0,888942,sinestep7.wav,None,1000,28,1050948,347,163.285
B,0,888942,vowelstep5.wav,None,1000,28,1052948,326,165.285
B,0,888942,vowelstep3.wav,None,1000,28,1054948,327,167.285
B,0,888942,silence.wav,None,1000,28,1056948,336,169.285
B,0,888942,sinestep3.wav,None,1000,28,1058948,336,171.285
B,0,888942,sinestep7_catch.wav,1,567,28,1060948,337,173.285
B,0,888942,sinestep3.wav,None,1000,28,1062948,779,175.285
B,0,888942,sinestep5_catch.wav,1,370,28,1064947,345,177.285
B,0,888942,vowelstep5.wav,None,1000,28,1066948,985,179.285
B,0,888942,silence.wav,None,1000,28,1068948,349,181.285
B,0,888942,sinestep7.wav,None,1000,28,1070948,355,183.285
B,0,888942,silence.wav,None,1000,28,1072948,363,185.285
B,0,888942,sinestep3.wav,None,1000,28,1074948,335,187.285
B,0,888942,silence.wav,None,1000,28,1076948,346,189.285
B,0,888942,vowelstep7.wav,None,1000,28,1078948,343,191.285
B,0,888942,vowelstep3.wav,None,1000,28,1080948,355,193.285
B,0,888942,vowelstep3.wav,None,1000,28,1082948,356,195.285
B,0,888942,sinestep7.wav,None,1000,28,1084949,354,197.285
B,0,888942,sinestep7.wav,None,1000,28,1086949,355,199.285
B,0,888942,sinestep3.wav,None,1000,28,1088948,334,201.285
B,0,888942,sinestep3_catch.wav,1,334,28,1090948,345,203.285
B,0,888942,sinestep1.wav,None,1000,28,1092948,1009,205.285
B,0,888942,sinestep1.wav,None,1000,28,1094948,344,207.285
B,0,888942,sinestep3.wav,None,1000,28,1096948,355,209.285
B,0,888942,silence.wav,None,1000,28,1098948,354,211.285
B,0,888942,silence.wav,None,1000,28,1100948,364,213.285
B,0,888942,sinestep5_catch.wav,1,181,28,1102949,363,215.285
B,0,888942,sinestep7.wav,None,1000,28,1104949,1159,217.285
B,0,888942,sinestep7.wav,None,1000,28,1106949,344,219.285
B,0,888942,vowelstep3.wav,None,1000,28,1108949,343,221.285
B,0,888942,sinestep1_catch.wav,1,228,28,1110949,353,223.285
B,0,888942,vowelstep5.wav,None,1000,28,1112949,1125,225.285
B,0,888942,sinestep1.wav,None,1000,28,1114948,354,227.285
B,0,888942,vowelstep1.wav,None,1000,28,1116948,333,229.285
B,0,888942,vowelstep1.wav,None,1000,28,1118949,342,231.285
B,0,888942,sinestep5.wav,None,1000,28,1120949,342,233.285
B,0,888942,silence.wav,None,1000,28,1122949,343,235.285
B,0,888942,silence.wav,None,1000,28,1124949,352,237.285
B,0,888942,vowelstep1.wav,None,1000,28,1126949,352,239.285
B,0,888942,vowelstep1.wav,None,1000,28,1128949,351,241.285
B,0,888942,silence.wav,None,1000,28,1130949,359,243.285
B,0,888942,vowelstep1_catch.wav,None,1000,28,1132949,342,245.285
B,0,888942,sinestep7.wav,None,1000,28,1134949,342,247.285
B,0,888942,sinestep1.wav,None,1000,28,1136950,342,249.285
B,0,888942,vowelstep1.wav,None,1000,28,1138949,351,251.285
B,0,888942,vowelstep3.wav,None,1000,28,1140949,351,253.285
B,0,888942,sinestep3.wav,None,1000,28,1142949,351,255.285
B,0,888942,silence.wav,None,1000,28,1144949,330,257.285
B,0,888942,vowelstep3.wav,None,1000,28,1146949,341,259.285
B,0,888942,silence.wav,None,1000,28,1148949,340,261.285
B,0,888942,vowelstep3.wav,None,1000,28,1150949,341,263.285
B,0,888942,sinestep5.wav,None,1000,28,1152949,351,265.285
B,0,888942,vowelstep3_catch.wav,None,1000,28,1154950,351,267.285
B,0,888942,sinestep3.wav,None,1000,28,1156950,350,269.285
B,0,888942,sinestep1.wav,None,1000,28,1158950,360,271.285
B,0,888942,vowelstep3.wav,None,1000,28,1160950,338,273.285
B,0,888942,vowelstep1.wav,None,1000,28,1162949,340,275.285
B,0,888942,vowelstep5_catch.wav,None,1000,28,1164949,340,277.285
B,0,888942,vowelstep1.wav,None,1000,28,1166949,339,279.285
B,0,888942,vowelstep5.wav,None,1000,28,1168949,350,281.285
B,0,888942,sinestep7.wav,None,1000,28,1170949,350,283.285
B,0,888942,vowelstep7.wav,None,1000,28,1172950,359,285.285
B,0,888942,vowelstep1_catch.wav,None,1000,28,1174950,339,287.285
B,0,888942,sinestep1.wav,None,1000,28,1176950,338,289.285
B,0,888942,vowelstep1.wav,None,1000,28,1178950,339,291.285
B,0,888942,sinestep5.wav,None,1000,28,1180950,349,293.285
B,0,888942,vowelstep7.wav,None,1000,28,1182950,349,295.285
B,0,888942,sinestep7.wav,None,1000,28,1184950,348,297.285
B,0,888942,vowelstep7_catch.wav,None,1000,28,1186949,358,299.285
B,0,888942,sinestep3.wav,1,182,28,1188950,327,301.285
B,0,888942,vowelstep3.wav,None,1000,28,1190950,1155,303.285
B,0,888942,sinestep5.wav,None,1000,28,1192950,337,305.285
B,0,888942,vowelstep1.wav,None,1000,28,1194950,338,307.285
B,0,888942,vowelstep7.wav,None,1000,28,1196950,347,309.285
B,0,888942,vowelstep1.wav,None,1000,28,1198950,347,311.285
B,0,888942,sinestep7.wav,None,1000,28,1200950,348,313.285
B,0,888942,sinestep3.wav,None,1000,28,1202950,358,315.285
B,0,888942,silence.wav,None,1000,28,1204950,339,317.285
B,0,888942,vowelstep1.wav,None,1000,28,1206951,337,319.285
G,1,1265668,vowelstep3.wav,None,1000,28,1265685,0,1.285
G,1,1265668,vowelstep3.wav,None,1000,28,1267684,349,3.285
G,1,1265668,vowelstep7.wav,None,1000,28,1269684,329,5.285
G,1,1265668,vowelstep3.wav,None,1000,28,1271684,330,7.285
G,1,1265668,sinestep5.wav,None,1000,28,1273684,330,9.285
G,1,1265668,sinestep1_catch.wav,1,283,28,1275684,339,11.285
G,1,1265668,silence.wav,None,1000,28,1277685,1055,13.285
G,1,1265668,silence.wav,None,1000,28,1279685,338,15.285
G,1,1265668,vowelstep7.wav,None,1000,28,1281685,349,17.285
G,1,1265668,vowelstep1.wav,None,1000,28,1283685,328,19.285
G,1,1265668,silence.wav,None,1000,28,1285685,328,21.285
G,1,1265668,sinestep1.wav,None,1000,28,1287685,328,23.285
G,1,1265668,vowelstep7.wav,None,1000,28,1289685,328,25.285
G,1,1265668,sinestep5.wav,None,1000,28,1291684,338,27.285
G,1,1265668,sinestep5.wav,None,1000,28,1293685,338,29.285
G,1,1265668,sinestep3.wav,None,1000,28,1295685,347,31.285
G,1,1265668,vowelstep3.wav,None,1000,28,1297685,317,33.285
G,1,1265668,silence.wav,None,1000,28,1299685,328,35.285
G,1,1265668,vowelstep1.wav,None,1000,28,1301685,327,37.285
G,1,1265668,sinestep7.wav,None,1000,28,1303685,336,39.285
G,1,1265668,vowelstep5.wav,None,1000,28,1305685,336,41.285
G,1,1265668,vowelstep3.wav,None,1000,28,1307685,338,43.285
G,1,1265668,sinestep1.wav,None,1000,28,1309685,348,45.285
G,1,1265668,sinestep7.wav,None,1000,28,1311686,328,47.285
G,1,1265668,sinestep1.wav,None,1000,28,1313686,326,49.285
G,1,1265668,sinestep5.wav,None,1000,28,1315685,326,51.285
G,1,1265668,vowelstep1.wav,None,1000,28,1317685,326,53.285
G,1,1265668,silence.wav,None,1000,28,1319685,335,55.285
G,1,1265668,sinestep5.wav,None,1000,28,1321685,336,57.285
G,1,1265668,vowelstep1.wav,None,1000,28,1323685,346,59.285
G,1,1265668,vowelstep3.wav,None,1000,28,1325685,315,61.285
G,1,1265668,sinestep3.wav,None,1000,28,1327685,325,63.285
G,1,1265668,sinestep1.wav,None,1000,28,1329686,325,65.285
G,1,1265668,vowelstep5.wav,None,1000,28,1331686,335,67.285
G,1,1265668,vowelstep3.wav,None,1000,28,1333686,334,69.285
G,1,1265668,vowelstep5.wav,None,1000,28,1335686,334,71.285
G,1,1265668,vowelstep7.wav,None,1000,28,1337686,334,73.285
G,1,1265668,vowelstep5.wav,None,1000,28,1339685,325,75.285
G,1,1265668,vowelstep5.wav,None,1000,28,1341685,325,77.285
G,1,1265668,sinestep3.wav,None,1000,28,1343685,325,79.285
G,1,1265668,sinestep3_catch.wav,2,288,28,1345685,334,81.285
G,1,1265668,sinestep5_catch.wav,2,295,28,1347686,1044,83.285
G,1,1265668,sinestep7.wav,None,1000,28,1349686,1037,85.285
G,1,1265668,sinestep7_catch.wav,1,187,28,1351686,333,87.285
G,1,1265668,sinestep7.wav,None,1000,28,1353686,1149,89.285
G,1,1265668,vowelstep1.wav,None,1000,28,1355686,324,91.285
G,1,1265668,vowelstep7.wav,None,1000,28,1357686,323,93.285
G,1,1265668,vowelstep3.wav,None,1000,28,1359686,322,95.285
G,1,1265668,sinestep3.wav,None,1000,28,1361686,333,97.285
G,1,1265668,sinestep1.wav,None,1000,28,1363687,332,99.285
G,1,1265668,sinestep1.wav,None,1000,28,1365686,341,101.285
G,1,1265668,sinestep5.wav,None,1000,28,1367686,341,103.285
G,1,1265668,vowelstep7.wav,None,1000,28,1369686,321,105.285
G,1,1265668,silence.wav,None,1000,28,1371686,322,107.285
G,1,1265668,sinestep3.wav,None,1000,28,1373686,322,109.285
G,1,1265668,vowelstep1.wav,None,1000,28,1375686,331,111.285
G,1,1265668,sinestep3.wav,None,1000,28,1377686,331,113.285
G,1,1265668,sinestep3.wav,None,1000,28,1379686,331,115.285
G,1,1265668,sinestep7.wav,None,1000,28,1381687,311,117.285
G,1,1265668,silence.wav,None,1000,28,1383687,321,119.285
G,1,1265668,vowelstep5.wav,None,1000,28,1385687,321,121.285
G,1,1265668,sinestep1_catch.wav,None,1000,28,1387687,320,123.285
G,1,1265668,silence.wav,None,1000,28,1389686,331,125.285
G,1,1265668,sinestep5.wav,None,1000,28,1391686,330,127.285
G,1,1265668,sinestep7.wav,None,1000,28,1393686,330,129.285
G,1,1265668,sinestep3.wav,None,1000,28,1395686,340,131.285
G,1,1265668,sinestep3.wav,None,1000,28,1397686,340,133.285
G,1,1265668,vowelstep5.wav,None,1000,28,1399687,339,135.285
G,1,1265668,sinestep3.wav,None,1000,28,1401687,318,137.285
G,1,1265668,sinestep3_catch.wav,1,531,28,1403687,328,139.285
G,1,1265668,vowelstep1.wav,None,1000,28,1405687,797,141.285
G,1,1265668,vowelstep1.wav,None,1000,28,1407687,328,143.285
G,1,1265668,sinestep5.wav,None,1000,28,1409687,339,145.285
G,1,1265668,silence.wav,None,1000,28,1411687,338,147.285
G,1,1265668,sinestep3.wav,None,1000,28,1413686,339,149.285
G,1,1265668,silence.wav,None,1000,28,1415686,348,151.285
G,1,1265668,vowelstep3.wav,None,1000,28,1417687,327,153.285
G,1,1265668,sinestep5.wav,None,1000,28,1419671,328,155.285
G,1,1265668,vowelstep7.wav,None,1000,28,1421687,357,157.285
G,1,1265668,silence.wav,None,1000,28,1423687,336,159.285
G,1,1265668,sinestep5_catch.wav,1,469,28,1425687,337,161.285
G,1,1265668,vowelstep5.wav,None,1000,28,1427687,866,163.285
G,1,1265668,silence.wav,None,1000,28,1429687,346,165.285
G,1,1265668,vowelstep7.wav,None,1000,28,1431687,316,167.285
G,1,1265668,vowelstep1.wav,None,1000,28,1433688,323,169.285
G,1,1265668,vowelstep1.wav,None,1000,28,1435671,326,171.285
G,1,1265668,vowelstep1.wav,None,1000,28,1437671,356,173.285
G,1,1265668,sinestep5.wav,None,1000,28,1439687,335,175.285
G,1,1265668,vowelstep3.wav,None,1000,28,1441687,335,177.285
G,1,1265668,sinestep1.wav,None,1000,28,1443687,335,179.285
G,1,1265668,vowelstep1.wav,None,1000,28,1445687,345,181.285
G,1,1265668,sinestep1.wav,None,1000,28,1447687,325,183.285
G,1,1265668,sinestep7.wav,None,1000,28,1449687,326,185.285
G,1,1265668,sinestep7.wav,None,1000,28,1451671,324,187.285
G,1,1265668,sinestep3.wav,None,1000,28,1453671,335,189.285
G,1,1265668,sinestep5.wav,None,1000,28,1455671,334,191.285
G,1,1265668,silence.wav,None,1000,28,1457688,344,193.285
G,1,1265668,sinestep7_catch.wav,1,420,28,1459688,314,195.285
G,1,1265668,vowelstep7_catch.wav,None,1000,28,1461687,903,197.285
G,1,1265668,sinestep7.wav,None,1000,28,1463687,324,199.285
G,1,1265668,silence.wav,None,1000,28,1465687,332,201.285
G,1,1265668,sinestep7.wav,None,1000,28,1467671,334,203.285
G,1,1265668,sinestep3.wav,None,1000,28,1469671,333,205.285
G,1,1265668,vowelstep7.wav,None,1000,28,1471671,334,207.285
G,1,1265668,sinestep1.wav,None,1000,28,1473671,343,209.285
G,1,1265668,silence.wav,None,1000,28,1475671,344,211.285
G,1,1265668,silence.wav,None,1000,28,1477688,339,213.285
G,1,1265668,vowelstep7.wav,None,1000,28,1479688,323,215.285
G,1,1265668,vowelstep5.wav,None,1000,28,1481688,334,217.285
G,1,1265668,sinestep7.wav,None,1000,28,1483671,334,219.285
G,1,1265668,vowelstep5.wav,None,1000,28,1485672,363,221.285
G,1,1265668,vowelstep5_catch.wav,None,1000,28,1487672,342,223.285
G,1,1265668,vowelstep7.wav,None,1000,28,1489672,342,225.285
G,1,1265668,silence.wav,None,1000,28,1491672,341,227.285
G,1,1265668,silence.wav,None,1000,28,1493671,352,229.285
G,1,1265668,sinestep1.wav,None,1000,28,1495688,351,231.285
G,1,1265668,silence.wav,None,1000,28,1497688,323,233.285
G,1,1265668,vowelstep7.wav,None,1000,28,1499671,332,235.285
G,1,1265668,vowelstep5.wav,None,1000,28,1501671,342,237.285
G,1,1265668,vowelstep3.wav,None,1000,28,1503672,341,239.285
G,1,1265668,vowelstep3_catch.wav,None,1000,28,1505672,341,241.285
G,1,1265668,sinestep1.wav,None,1000,28,1507672,350,243.285
G,1,1265668,silence.wav,None,1000,28,1509672,350,245.285
G,1,1265668,sinestep7.wav,None,1000,28,1511672,351,247.285
G,1,1265668,sinestep1.wav,None,1000,28,1513672,361,249.285
G,1,1265668,sinestep3.wav,None,1000,28,1515672,341,251.285
G,1,1265668,vowelstep3.wav,None,1000,28,1517671,342,253.285
G,1,1265668,vowelstep1_catch.wav,None,1000,28,1519671,340,255.285
G,1,1265668,sinestep7.wav,None,1000,28,1521672,351,257.285
G,1,1265668,silence.wav,None,1000,28,1523672,348,259.285
G,1,1265668,sinestep5.wav,1,715,28,1525672,350,261.285
G,1,1265668,sinestep5.wav,None,1000,28,1527672,634,263.285
G,1,1265668,vowelstep5.wav,None,1000,28,1529672,339,265.285
G,1,1265668,sinestep5.wav,None,1000,28,1531672,339,267.285
G,1,1265668,sinestep7.wav,None,1000,28,1533672,339,269.285
G,1,1265668,silence.wav,None,1000,28,1535672,339,271.285
G,1,1265668,vowelstep7_catch.wav,None,1000,28,1537672,349,273.285
G,1,1265668,vowelstep5.wav,None,1000,28,1539673,349,275.285
G,1,1265668,silence.wav,None,1000,28,1541672,358,277.285
G,1,1265668,sinestep3.wav,None,1000,28,1543672,339,279.285
G,1,1265668,vowelstep5.wav,None,1000,28,1545672,338,281.285
G,1,1265668,silence.wav,None,1000,28,1547672,338,283.285
G,1,1265668,vowelstep1.wav,None,1000,28,1549672,348,285.285
G,1,1265668,sinestep1.wav,None,1000,28,1551672,348,287.285
G,1,1265668,vowelstep3.wav,None,1000,28,1553672,348,289.285
G,1,1265668,vowelstep7.wav,None,1000,28,1555673,349,291.285
G,1,1265668,vowelstep7.wav,None,1000,28,1557673,338,293.285
G,1,1265668,sinestep1.wav,None,1000,28,1559673,337,295.285
G,1,1265668,vowelstep5.wav,None,1000,28,1561673,337,297.285
G,1,1265668,silence.wav,None,1000,28,1563673,338,299.285
G,1,1265668,sinestep1.wav,None,1000,28,1565672,346,301.285
G,1,1265668,vowelstep7.wav,None,1000,28,1567672,345,303.285
G,1,1265668,vowelstep5_catch.wav,None,1000,28,1569672,358,305.285
G,1,1265668,vowelstep3.wav,None,1000,28,1571672,357,307.285
G,1,1265668,vowelstep3_catch.wav,None,1000,28,1573673,337,309.285
G,1,1265668,sinestep7.wav,None,1000,28,1575673,338,311.285
G,1,1265668,sinestep5.wav,None,1000,28,1577673,337,313.285
G,1,1265668,vowelstep1.wav,None,1000,28,1579673,347,315.285
G,1,1265668,vowelstep3.wav,None,1000,28,1581673,345,317.285
G,1,1265668,vowelstep1.wav,None,1000,28,1583673,347,319.285
A,2,1643044,sinestep5_catch.wav,1,927,28,1643058,0,1.285
A,2,1643044,vowelstep1.wav,None,1000,28,1645058,400,3.285
A,2,1643044,vowelstep3.wav,None,1000,28,1647057,339,5.285
A,2,1643044,sinestep1.wav,None,1000,28,1649057,337,7.285
A,2,1643044,sinestep5_catch.wav,1,94,28,1651057,349,9.285
A,2,1643044,sinestep7.wav,1,127,28,1653057,1223,11.285
A,2,1643044,sinestep3.wav,None,1000,28,1655057,1200,13.285
A,2,1643044,silence.wav,None,1000,28,1657057,329,15.285
A,2,1643044,vowelstep7.wav,None,1000,28,1659057,338,17.285
A,2,1643044,sinestep7.wav,None,1000,28,1661058,337,19.285
A,2,1643044,vowelstep5_catch.wav,None,1000,28,1663058,337,21.285
A,2,1643044,sinestep7.wav,None,1000,28,1665058,346,23.285
A,2,1643044,sinestep3.wav,None,1000,28,1667058,328,25.285
A,2,1643044,silence.wav,None,1000,28,1669058,327,27.285
A,2,1643044,sinestep3.wav,None,1000,28,1671058,328,29.285
A,2,1643044,sinestep5_catch.wav,1,263,28,1673057,336,31.285
A,2,1643044,sinestep1.wav,None,1000,28,1675057,1074,33.285
A,2,1643044,sinestep1.wav,None,1000,28,1677057,337,35.285
A,2,1643044,sinestep5.wav,None,1000,28,1679058,347,37.285
A,2,1643044,vowelstep3.wav,None,1000,28,1681058,317,39.285
A,2,1643044,vowelstep5.wav,None,1000,28,1683058,326,41.285
A,2,1643044,vowelstep3.wav,None,1000,28,1685058,323,43.285
A,2,1643044,vowelstep1.wav,None,1000,28,1687058,336,45.285
A,2,1643044,vowelstep3.wav,None,1000,28,1689058,336,47.285
A,2,1643044,sinestep3.wav,None,1000,28,1691058,336,49.285
A,2,1643044,sinestep7.wav,None,1000,28,1693058,335,51.285
A,2,1643044,sinestep5.wav,None,1000,28,1695058,315,53.285
A,2,1643044,vowelstep7_catch.wav,None,1000,28,1697058,325,55.285
A,2,1643044,silence.wav,None,1000,28,1699058,324,57.285
A,2,1643044,vowelstep3.wav,None,1000,28,1701058,325,59.285
A,2,1643044,vowelstep1.wav,None,1000,28,1703058,335,61.285
A,2,1643044,silence.wav,None,1000,28,1705058,335,63.285
A,2,1643044,sinestep3.wav,None,1000,28,1707058,334,65.285
A,2,1643044,sinestep7.wav,None,1000,28,1709058,343,67.285
A,2,1643044,sinestep5.wav,None,1000,28,1711058,324,69.285
A,2,1643044,sinestep5.wav,None,1000,28,1713059,325,71.285
A,2,1643044,sinestep7.wav,None,1000,28,1715059,323,73.285
A,2,1643044,sinestep1.wav,None,1000,28,1717059,334,75.285
A,2,1643044,sinestep5.wav,None,1000,28,1719059,333,77.285
A,2,1643044,vowelstep1.wav,None,1000,28,1721058,344,79.285
A,2,1643044,sinestep1.wav,None,1000,28,1723058,313,81.285
A,2,1643044,vowelstep5.wav,None,1000,28,1725058,323,83.285
A,2,1643044,sinestep1.wav,None,1000,28,1727058,323,85.285
A,2,1643044,silence.wav,None,1000,28,1729058,333,87.285
A,2,1643044,vowelstep1.wav,None,1000,28,1731059,334,89.285
A,2,1643044,sinestep3.wav,None,1000,28,1733059,333,91.285
A,2,1643044,vowelstep5.wav,None,1000,28,1735059,332,93.285
A,2,1643044,vowelstep5.wav,None,1000,28,1737059,343,95.285
A,2,1643044,vowelstep5.wav,None,1000,28,1739059,323,97.285
A,2,1643044,vowelstep7.wav,None,1000,28,1741059,323,99.285
A,2,1643044,vowelstep3.wav,None,1000,28,1743059,323,101.285
A,2,1643044,sinestep1.wav,None,1000,28,1745058,333,103.285
A,2,1643044,sinestep1.wav,None,1000,28,1747058,333,105.285
A,2,1643044,vowelstep7.wav,None,1000,28,1749059,333,107.285
A,2,1643044,vowelstep1.wav,None,1000,28,1751059,341,109.285
A,2,1643044,vowelstep7.wav,None,1000,28,1753059,323,111.285
A,2,1643044,silence.wav,None,1000,28,1755059,322,113.285
A,2,1643044,sinestep1.wav,None,1000,28,1757059,331,115.285
A,2,1643044,vowelstep1.wav,None,1000,28,1759059,331,117.285
A,2,1643044,silence.wav,None,1000,28,1761059,331,119.285
A,2,1643044,vowelstep1.wav,None,1000,28,1763059,333,121.285
A,2,1643044,vowelstep3.wav,None,1000,28,1765059,308,123.285
A,2,1643044,vowelstep1.wav,None,1000,28,1767060,320,125.285
A,2,1643044,sinestep7.wav,None,1000,28,1769059,321,127.285
A,2,1643044,silence.wav,None,1000,28,1771059,320,129.285
A,2,1643044,vowelstep1.wav,None,1000,28,1773059,331,131.285
A,2,1643044,silence.wav,None,1000,28,1775059,330,133.285
A,2,1643044,sinestep7.wav,None,1000,28,1777059,330,135.285
A,2,1643044,vowelstep5.wav,None,1000,28,1779059,341,137.285
A,2,1643044,sinestep7.wav,None,1000,28,1781059,320,139.285
A,2,1643044,sinestep3.wav,None,1000,28,1783060,320,141.285
A,2,1643044,vowelstep5.wav,None,1000,28,1785060,319,143.285
A,2,1643044,silence.wav,None,1000,28,1787060,319,145.285
A,2,1643044,sinestep3.wav,None,1000,28,1789060,330,147.285
A,2,1643044,sinestep5.wav,None,1000,28,1791060,329,149.285
A,2,1643044,sinestep3.wav,None,1000,28,1793059,309,151.285
A,2,1643044,vowelstep3.wav,None,1000,28,1795059,310,153.285
A,2,1643044,sinestep3.wav,None,1000,28,1797059,319,155.285
A,2,1643044,vowelstep7_catch.wav,None,1000,28,1799059,338,157.285
A,2,1643044,vowelstep7.wav,None,1000,28,1801060,349,159.285
A,2,1643044,vowelstep5.wav,None,1000,28,1803060,328,161.285
A,2,1643044,sinestep5.wav,None,1000,28,1805060,328,163.285
A,2,1643044,silence.wav,None,1000,28,1807060,328,165.285
A,2,1643044,sinestep5.wav,None,1000,28,1809060,338,167.285
A,2,1643044,vowelstep5_catch.wav,None,1000,28,1811060,337,169.285
A,2,1643044,silence.wav,None,1000,28,1813060,347,171.285
A,2,1643044,sinestep7.wav,None,1000,28,1815060,317,173.285
A,2,1643044,sinestep5.wav,None,1000,28,1817059,327,175.285
A,2,1643044,sinestep7.wav,None,1000,28,1819060,327,177.285
A,2,1643044,vowelstep3.wav,None,1000,28,1821060,336,179.285
A,2,1643044,sinestep5.wav,None,1000,28,1823060,336,181.285
A,2,1643044,vowelstep1.wav,None,1000,28,1825060,337,183.285
A,2,1643044,vowelstep5.wav,None,1000,28,1827060,346,185.285
A,2,1643044,sinestep5.wav,None,1000,28,1829060,346,187.285
A,2,1643044,vowelstep1.wav,None,1000,28,1831060,327,189.285
A,2,1643044,silence.wav,None,1000,28,1833060,326,191.285
A,2,1643044,sinestep1.wav,None,1000,28,1835060,326,193.285
A,2,1643044,vowelstep5.wav,None,1000,28,1837061,336,195.285
A,2,1643044,sinestep3.wav,None,1000,28,1839061,336,197.285
A,2,1643044,silence.wav,None,1000,28,1841060,345,199.285
A,2,1643044,vowelstep3.wav,None,1000,28,1843060,346,201.285
A,2,1643044,vowelstep3_catch.wav,None,1000,28,1845060,326,203.285
A,2,1643044,vowelstep5.wav,None,1000,28,1847060,326,205.285
A,2,1643044,vowelstep1_catch.wav,None,1000,28,1849060,326,207.285
A,2,1643044,silence.wav,None,1000,28,1851060,336,209.285
A,2,1643044,sinestep3.wav,None,1000,28,1853061,335,211.285
A,2,1643044,vowelstep5.wav,None,1000,28,1855061,335,213.285
A,2,1643044,silence.wav,None,1000,28,1857061,344,215.285
A,2,1643044,sinestep5.wav,None,1000,28,1859061,325,217.285
A,2,1643044,vowelstep7.wav,None,1000,28,1861061,325,219.285
A,2,1643044,silence.wav,None,1000,28,1863061,333,221.285
A,2,1643044,vowelstep3.wav,None,1000,28,1865060,334,223.285
A,2,1643044,sinestep7.wav,None,1000,28,1867060,334,225.285
A,2,1643044,silence.wav,None,1000,28,1869060,335,227.285
A,2,1643044,vowelstep3.wav,None,1000,28,1871061,314,229.285
A,2,1643044,vowelstep5.wav,None,1000,28,1873061,323,231.285
A,2,1643044,vowelstep7.wav,None,1000,28,1875061,324,233.285
A,2,1643044,vowelstep3.wav,None,1000,28,1877061,321,235.285
A,2,1643044,vowelstep5.wav,None,1000,28,1879061,334,237.285
A,2,1643044,sinestep1_catch.wav,1,423,28,1881061,333,239.285
A,2,1643044,sinestep3.wav,None,1000,28,1883061,909,241.285
A,2,1643044,sinestep1.wav,None,1000,28,1885061,313,243.285
A,2,1643044,sinestep3_catch.wav,1,137,28,1887061,323,245.285
A,2,1643044,sinestep7.wav,None,1000,28,1889062,1184,247.285
A,2,1643044,vowelstep1.wav,None,1000,28,1891061,323,249.285
A,2,1643044,sinestep3.wav,None,1000,28,1893061,333,251.285
A,2,1643044,vowelstep7.wav,None,1000,28,1895061,333,253.285
A,2,1643044,silence.wav,None,1000,28,1897061,333,255.285
A,2,1643044,sinestep1.wav,None,1000,28,1899061,332,257.285
A,2,1643044,silence.wav,None,1000,28,1901061,323,259.285
A,2,1643044,vowelstep5.wav,None,1000,28,1903061,322,261.285
A,2,1643044,sinestep5_catch.wav,1,896,28,1905061,323,263.285
A,2,1643044,vowelstep7.wav,None,1000,28,1907062,435,265.285
A,2,1643044,sinestep3.wav,None,1000,28,1909062,332,267.285
A,2,1643044,vowelstep1.wav,None,1000,28,1911062,332,269.285
A,2,1643044,vowelstep3.wav,None,1000,28,1913062,341,271.285
A,2,1643044,sinestep7_catch.wav,1,440,28,1915061,319,273.285
A,2,1643044,silence.wav,None,1000,28,1917061,880,275.285
A,2,1643044,vowelstep7.wav,None,1000,28,1919061,321,277.285
A,2,1643044,sinestep7.wav,None,1000,28,1921061,331,279.285
A,2,1643044,sinestep1.wav,None,1000,28,1923062,332,281.285
A,2,1643044,vowelstep7.wav,None,1000,28,1925062,330,283.285
A,2,1643044,sinestep5.wav,None,1000,28,1927062,331,285.285
A,2,1643044,sinestep5.wav,None,1000,28,1929062,311,287.285
A,2,1643044,sinestep7_catch.wav,None,1000,28,1931062,320,289.285
A,2,1643044,sinestep5.wav,None,1000,28,1933062,321,291.285
A,2,1643044,silence.wav,None,1000,28,1935062,320,293.285
A,2,1643044,vowelstep3.wav,None,1000,28,1937062,331,295.285
A,2,1643044,silence.wav,None,1000,28,1939061,330,297.285
A,2,1643044,vowelstep1.wav,None,1000,28,1941062,330,299.285
A,2,1643044,sinestep1.wav,None,1000,28,1943062,318,301.285
A,2,1643044,sinestep7.wav,None,1000,28,1945062,317,303.285
A,2,1643044,vowelstep7.wav,None,1000,28,1947062,314,305.285
A,2,1643044,sinestep1_catch.wav,1,197,28,1949062,319,307.285
A,2,1643044,silence.wav,None,1000,28,1951062,1131,309.285
A,2,1643044,silence.wav,None,1000,28,1953062,330,311.285
A,2,1643044,vowelstep7.wav,None,1000,28,1955062,329,313.285
A,2,1643044,sinestep1.wav,None,1000,28,1957062,310,315.285
A,2,1643044,vowelstep7.wav,None,1000,28,1959063,319,317.285
A,2,1643044,vowelstep7.wav,None,1000,28,1961063,318,319.285
H,3,2019280,sinestep3.wav,None,1000,28,2019297,0,1.285
H,3,2019280,sinestep7.wav,None,1000,28,2021296,321,3.285
H,3,2019280,sinestep3.wav,None,1000,28,2023296,331,5.285
H,3,2019280,vowelstep3.wav,None,1000,28,2025296,329,7.285
H,3,2019280,vowelstep1.wav,None,1000,28,2027296,328,9.285
H,3,2019280,sinestep7.wav,None,1000,28,2029297,311,11.285
H,3,2019280,vowelstep3.wav,None,1000,28,2031297,309,13.285
H,3,2019280,silence.wav,None,1000,28,2033297,319,15.285
H,3,2019280,vowelstep1.wav,None,1000,28,2035297,320,17.285
H,3,2019280,sinestep5.wav,None,1000,28,2037297,329,19.285
H,3,2019280,sinestep7.wav,None,1000,28,2039297,329,21.285
H,3,2019280,vowelstep7.wav,None,1000,28,2041297,330,23.285
H,3,2019280,vowelstep1_catch.wav,None,1000,28,2043296,319,25.285
H,3,2019280,sinestep5.wav,None,1000,28,2045297,320,27.285
H,3,2019280,vowelstep5.wav,None,1000,28,2047297,319,29.285
H,3,2019280,silence.wav,None,1000,28,2049297,318,31.285
H,3,2019280,vowelstep3_catch.wav,None,1000,28,2051297,329,33.285
H,3,2019280,sinestep7.wav,None,1000,28,2053297,323,35.285
H,3,2019280,sinestep5.wav,None,1000,28,2055297,333,37.285
H,3,2019280,silence.wav,None,1000,28,2057297,342,39.285
H,3,2019280,vowelstep3.wav,None,1000,28,2059297,323,41.285
H,3,2019280,vowelstep1.wav,None,1000,28,2061297,323,43.285
H,3,2019280,vowelstep1.wav,None,1000,28,2063298,322,45.285
H,3,2019280,vowelstep3.wav,None,1000,28,2065298,331,47.285
H,3,2019280,sinestep3.wav,None,1000,28,2067297,331,49.285
H,3,2019280,vowelstep1.wav,None,1000,28,2069297,332,51.285
H,3,2019280,sinestep7.wav,None,1000,28,2071297,342,53.285
H,3,2019280,vowelstep7.wav,None,1000,28,2073297,322,55.285
H,3,2019280,vowelstep5_catch.wav,None,1000,28,2075297,320,57.285
H,3,2019280,vowelstep5.wav,None,1000,28,2077297,321,59.285
H,3,2019280,vowelstep3.wav,None,1000,28,2079297,322,61.285
H,3,2019280,vowelstep7_catch.wav,None,1000,28,2081298,332,63.285
H,3,2019280,sinestep3.wav,None,1000,28,2083298,330,65.285
H,3,2019280,sinestep1.wav,None,1000,28,2085298,340,67.285
H,3,2019280,sinestep7.wav,None,1000,28,2087298,321,69.285
H,3,2019280,silence.wav,None,1000,28,2089298,319,71.285
H,3,2019280,vowelstep1.wav,None,1000,28,2091298,319,73.285
H,3,2019280,vowelstep7.wav,None,1000,28,2093297,320,75.285
H,3,2019280,sinestep7.wav,None,1000,28,2095297,328,77.285
H,3,2019280,sinestep1.wav,None,1000,28,2097297,329,79.285
H,3,2019280,sinestep7.wav,None,1000,28,2099298,338,81.285
H,3,2019280,sinestep1.wav,None,1000,28,2101298,307,83.285
H,3,2019280,vowelstep5.wav,None,1000,28,2103298,315,85.285
H,3,2019280,sinestep3.wav,None,1000,28,2105298,317,87.285
H,3,2019280,vowelstep5.wav,None,1000,28,2107298,327,89.285
H,3,2019280,silence.wav,None,1000,28,2109298,327,91.285
H,3,2019280,silence.wav,None,1000,28,2111298,327,93.285
H,3,2019280,sinestep5.wav,None,1000,28,2113298,327,95.285
H,3,2019280,sinestep3.wav,None,1000,28,2115298,336,97.285
H,3,2019280,sinestep7.wav,None,1000,28,2117298,315,99.285
H,3,2019280,sinestep7_catch.wav,1,461,28,2119298,335,101.285
H,3,2019280,silence.wav,None,1000,28,2121298,853,103.285
H,3,2019280,sinestep3.wav,None,1000,28,2123298,325,105.285
H,3,2019280,silence.wav,None,1000,28,2125298,325,107.285
H,3,2019280,vowelstep1.wav,None,1000,28,2127298,325,109.285
H,3,2019280,vowelstep7.wav,None,1000,28,2129298,334,111.285
H,3,2019280,sinestep5.wav,None,1000,28,2131298,334,113.285
H,3,2019280,silence.wav,None,1000,28,2133299,334,115.285
H,3,2019280,vowelstep7.wav,None,1000,28,2135299,343,117.285
H,3,2019280,vowelstep3.wav,None,1000,28,2137299,324,119.285
H,3,2019280,sinestep5.wav,None,1000,28,2139299,323,121.285
H,3,2019280,sinestep1.wav,None,1000,28,2141298,323,123.285
H,3,2019280,vowelstep3.wav,None,1000,28,2143298,334,125.285
H,3,2019280,vowelstep3.wav,None,1000,28,2145298,333,127.285
H,3,2019280,vowelstep5.wav,None,1000,28,2147298,344,129.285
H,3,2019280,vowelstep1.wav,None,1000,28,2149298,344,131.285
H,3,2019280,vowelstep7.wav,None,1000,28,2151299,323,133.285
H,3,2019280,vowelstep3.wav,None,1000,28,2153299,323,135.285
H,3,2019280,vowelstep5.wav,None,1000,28,2155299,323,137.285
H,3,2019280,vowelstep5.wav,None,1000,28,2157299,333,139.285
H,3,2019280,sinestep7.wav,None,1000,28,2159299,333,141.285
H,3,2019280,vowelstep1.wav,None,1000,28,2161299,332,143.285
H,3,2019280,sinestep3.wav,None,1000,28,2163299,343,145.285
H,3,2019280,sinestep1.wav,None,1000,28,2165298,322,147.285
H,3,2019280,vowelstep1.wav,None,1000,28,2167298,322,149.285
H,3,2019280,sinestep5_catch.wav,None,1000,28,2169299,321,151.285
H,3,2019280,sinestep7.wav,None,1000,28,2171299,331,153.285
H,3,2019280,sinestep3_catch.wav,None,1000,28,2173282,332,155.285
H,3,2019280,sinestep7.wav,None,1000,28,2175299,332,157.285
H,3,2019280,sinestep5.wav,None,1000,28,2177299,331,159.285
H,3,2019280,silence.wav,None,1000,28,2179299,321,161.285
H,3,2019280,sinestep1_catch.wav,None,1000,28,2181299,322,163.285
H,3,2019280,vowelstep7.wav,None,1000,28,2183299,321,165.285
H,3,2019280,vowelstep7.wav,None,1000,28,2185300,321,167.285
H,3,2019280,sinestep7.wav,None,1000,28,2187300,330,169.285
H,3,2019280,sinestep3.wav,None,1000,28,2189283,331,171.285
H,3,2019280,sinestep5.wav,None,1000,28,2191283,341,173.285
H,3,2019280,vowelstep1_catch.wav,None,1000,28,2193299,340,175.285
H,3,2019280,vowelstep1.wav,None,1000,28,2195299,321,177.285
H,3,2019280,sinestep3.wav,None,1000,28,2197299,321,179.285
H,3,2019280,sinestep3.wav,None,1000,28,2199299,330,181.285
H,3,2019280,vowelstep5.wav,None,1000,28,2201299,331,183.285
H,3,2019280,sinestep1.wav,None,1000,28,2203300,330,185.285
H,3,2019280,sinestep1.wav,None,1000,28,2205283,329,187.285
H,3,2019280,vowelstep7.wav,None,1000,28,2207283,340,189.285
H,3,2019280,sinestep1.wav,None,1000,28,2209283,340,191.285
H,3,2019280,sinestep5.wav,None,1000,28,2211300,339,193.285
H,3,2019280,vowelstep3_catch.wav,None,1000,28,2213299,319,195.285
H,3,2019280,sinestep1.wav,None,1000,28,2215299,329,197.285
H,3,2019280,silence.wav,None,1000,28,2217299,328,199.285
H,3,2019280,vowelstep1.wav,None,1000,28,2219299,329,201.285
H,3,2019280,vowelstep5_catch.wav,None,1000,28,2221283,310,203.285
H,3,2019280,sinestep5.wav,None,1000,28,2223283,338,205.285
H,3,2019280,sinestep1.wav,None,1000,28,2225283,338,207.285
H,3,2019280,silence.wav,None,1000,28,2227283,348,209.285
H,3,2019280,sinestep3.wav,None,1000,28,2229300,348,211.285
H,3,2019280,silence.wav,None,1000,28,2231300,328,213.285
H,3,2019280,vowelstep7_catch.wav,None,1000,28,2233300,325,215.285
H,3,2019280,vowelstep5.wav,None,1000,28,2235300,308,217.285
H,3,2019280,sinestep7.wav,None,1000,28,2237283,318,219.285
H,3,2019280,silence.wav,None,1000,28,2239284,338,221.285
H,3,2019280,sinestep1.wav,None,1000,28,2241284,347,223.285
H,3,2019280,silence.wav,None,1000,28,2243284,346,225.285
H,3,2019280,silence.wav,None,1000,28,2245283,358,227.285
H,3,2019280,silence.wav,None,1000,28,2247300,355,229.285
H,3,2019280,silence.wav,None,1000,28,2249300,307,231.285
H,3,2019280,sinestep5.wav,None,1000,28,2251300,317,233.285
H,3,2019280,silence.wav,None,1000,28,2253283,318,235.285
H,3,2019280,vowelstep3.wav,None,1000,28,2255284,347,237.285
H,3,2019280,silence.wav,None,1000,28,2257284,345,239.285
H,3,2019280,silence.wav,None,1000,28,2259284,346,241.285
H,3,2019280,vowelstep1_catch.wav,None,1000,28,2261284,356,243.285
H,3,2019280,vowelstep5.wav,None,1000,28,2263284,335,245.285
H,3,2019280,vowelstep7.wav,None,1000,28,2265284,336,247.285
H,3,2019280,vowelstep3_catch.wav,None,1000,28,2267300,335,249.285
H,3,2019280,vowelstep1.wav,None,1000,28,2269284,314,251.285
H,3,2019280,sinestep3.wav,None,1000,28,2271283,346,253.285
H,3,2019280,vowelstep5_catch.wav,None,1000,28,2273284,345,255.285
H,3,2019280,vowelstep5.wav,None,1000,28,2275284,353,257.285
H,3,2019280,silence.wav,None,1000,28,2277284,334,259.285
H,3,2019280,vowelstep7.wav,None,1000,28,2279284,335,261.285
H,3,2019280,sinestep5.wav,None,1000,28,2281284,336,263.285
H,3,2019280,vowelstep5.wav,None,1000,28,2283284,344,265.285
H,3,2019280,vowelstep7.wav,None,1000,28,2285284,345,267.285
H,3,2019280,vowelstep3.wav,None,1000,28,2287284,345,269.285
H,3,2019280,vowelstep3.wav,None,1000,28,2289284,345,271.285
H,3,2019280,silence.wav,None,1000,28,2291285,336,273.285
H,3,2019280,vowelstep3.wav,None,1000,28,2293284,333,275.285
H,3,2019280,sinestep1.wav,None,1000,28,2295284,334,277.285
H,3,2019280,silence.wav,None,1000,28,2297284,344,279.285
H,3,2019280,sinestep1.wav,None,1000,28,2299284,344,281.285
H,3,2019280,vowelstep3.wav,None,1000,28,2301284,344,283.285
H,3,2019280,silence.wav,None,1000,28,2303284,354,285.285
H,3,2019280,vowelstep5.wav,None,1000,28,2305284,333,287.285
H,3,2019280,vowelstep5.wav,None,1000,28,2307284,334,289.285
H,3,2019280,vowelstep1.wav,None,1000,28,2309285,333,291.285
H,3,2019280,sinestep5.wav,None,1000,28,2311285,343,293.285
H,3,2019280,vowelstep7.wav,None,1000,28,2313285,343,295.285
H,3,2019280,vowelstep1.wav,None,1000,28,2315285,343,297.285
H,3,2019280,vowelstep7.wav,None,1000,28,2317284,343,299.285
H,3,2019280,vowelstep3.wav,None,1000,28,2319284,333,301.285
H,3,2019280,sinestep1.wav,None,1000,28,2321284,333,303.285
H,3,2019280,sinestep5.wav,None,1000,28,2323284,333,305.285
H,3,2019280,vowelstep5.wav,None,1000,28,2325285,341,307.285
H,3,2019280,sinestep3.wav,None,1000,28,2327285,341,309.285
H,3,2019280,vowelstep7.wav,None,1000,28,2329285,342,311.285
H,3,2019280,sinestep7.wav,None,1000,28,2331285,342,313.285
H,3,2019280,sinestep5.wav,None,1000,28,2333285,333,315.285
H,3,2019280,sinestep3.wav,None,1000,28,2335285,333,317.285
H,3,2019280,sinestep1.wav,None,1000,28,2337285,333,319.285
E,4,2401440,vowelstep7.wav,None,1000,28,2401453,0,1.285
E,4,2401440,sinestep3.wav,None,1000,28,2403453,338,3.285
E,4,2401440,sinestep5.wav,None,1000,28,2405453,349,5.285
E,4,2401440,sinestep1.wav,None,1000,28,2407452,328,7.285
E,4,2401440,sinestep5.wav,None,1000,28,2409452,328,9.285
E,4,2401440,silence.wav,None,1000,28,2411452,328,11.285
E,4,2401440,vowelstep1.wav,None,1000,28,2413453,338,13.285
E,4,2401440,vowelstep7.wav,None,1000,28,2415453,336,15.285
E,4,2401440,vowelstep1.wav,None,1000,28,2417453,336,17.285
E,4,2401440,sinestep1_catch.wav,1,340,28,2419453,347,19.285
E,4,2401440,vowelstep5.wav,None,1000,28,2421453,985,21.285
E,4,2401440,sinestep5.wav,None,1000,28,2423453,326,23.285
E,4,2401440,vowelstep5.wav,None,1000,28,2425453,327,25.285
E,4,2401440,vowelstep3.wav,None,1000,28,2427453,336,27.285
E,4,2401440,sinestep1.wav,None,1000,28,2429453,337,29.285
E,4,2401440,vowelstep5.wav,None,1000,28,2431453,337,31.285
E,4,2401440,silence.wav,None,1000,28,2433453,344,33.285
E,4,2401440,silence.wav,None,1000,28,2435453,326,35.285
E,4,2401440,sinestep3.wav,None,1000,28,2437453,325,37.285
E,4,2401440,sinestep3.wav,None,1000,28,2439453,326,39.285
E,4,2401440,sinestep3.wav,None,1000,28,2441453,326,41.285
E,4,2401440,sinestep1.wav,None,1000,28,2443453,336,43.285
E,4,2401440,vowelstep1.wav,None,1000,28,2445453,336,45.285
E,4,2401440,sinestep1.wav,None,1000,28,2447454,344,47.285
E,4,2401440,vowelstep7.wav,None,1000,28,2449454,325,49.285
E,4,2401440,vowelstep5.wav,None,1000,28,2451454,322,51.285
E,4,2401440,sinestep7.wav,None,1000,28,2453454,325,53.285
E,4,2401440,sinestep1.wav,None,1000,28,2455453,335,55.285
E,4,2401440,vowelstep5.wav,None,1000,28,2457453,335,57.285
E,4,2401440,sinestep3.wav,None,1000,28,2459453,335,59.285
E,4,2401440,vowelstep1.wav,None,1000,28,2461453,334,61.285
E,4,2401440,vowelstep5.wav,None,1000,28,2463453,325,63.285
E,4,2401440,vowelstep3.wav,None,1000,28,2465454,325,65.285
E,4,2401440,sinestep1.wav,None,1000,28,2467454,324,67.285
E,4,2401440,vowelstep3.wav,None,1000,28,2469454,323,69.285
E,4,2401440,silence.wav,None,1000,28,2471454,334,71.285
E,4,2401440,vowelstep3.wav,None,1000,28,2473454,333,73.285
E,4,2401440,sinestep3_catch.wav,None,1000,28,2475454,344,75.285
E,4,2401440,sinestep3.wav,None,1000,28,2477454,314,77.285
E,4,2401440,vowelstep3.wav,None,1000,28,2479453,324,79.285
E,4,2401440,vowelstep7.wav,None,1000,28,2481453,324,81.285
E,4,2401440,silence.wav,None,1000,28,2483454,333,83.285
E,4,2401440,sinestep3.wav,None,1000,28,2485454,333,85.285
E,4,2401440,silence.wav,None,1000,28,2487454,332,87.285
E,4,2401440,sinestep1.wav,None,1000,28,2489454,339,89.285
E,4,2401440,sinestep5_catch.wav,1,258,28,2491454,340,91.285
E,4,2401440,vowelstep3.wav,None,1000,28,2493454,1063,93.285
E,4,2401440,sinestep5.wav,None,1000,28,2495454,320,95.285
E,4,2401440,vowelstep7.wav,None,1000,28,2497454,322,97.285
E,4,2401440,sinestep1.wav,None,1000,28,2499454,332,99.285
E,4,2401440,sinestep5.wav,None,1000,28,2501455,332,101.285
E,4,2401440,sinestep5.wav,None,1000,28,2503454,331,103.285
E,4,2401440,vowelstep7.wav,None,1000,28,2505454,341,105.285
E,4,2401440,vowelstep3.wav,None,1000,28,2507454,322,107.285
E,4,2401440,vowelstep7.wav,None,1000,28,2509454,321,109.285
E,4,2401440,sinestep5.wav,None,1000,28,2511454,322,111.285
E,4,2401440,vowelstep3.wav,None,1000,28,2513454,331,113.285
E,4,2401440,vowelstep7.wav,None,1000,28,2515454,330,115.285
E,4,2401440,sinestep3.wav,None,1000,28,2517455,331,117.285
E,4,2401440,vowelstep7.wav,None,1000,28,2519455,310,119.285
E,4,2401440,silence.wav,None,1000,28,2521455,320,121.285
E,4,2401440,silence.wav,None,1000,28,2523455,320,123.285
E,4,2401440,sinestep7.wav,None,1000,28,2525455,320,125.285
E,4,2401440,sinestep7_catch.wav,1,329,28,2527454,330,127.285
E,4,2401440,sinestep7.wav,None,1000,28,2529454,1000,129.285
E,4,2401440,silence.wav,None,1000,28,2531454,330,131.285
E,4,2401440,sinestep7_catch.wav,1,265,28,2533454,330,133.285
E,4,2401440,sinestep7.wav,None,1000,28,2535455,1054,135.285
E,4,2401440,sinestep5_catch.wav,1,48,28,2537455,321,137.285
E,4,2401440,sinestep1.wav,None,1000,28,2539455,1270,139.285
E,4,2401440,sinestep1.wav,None,1000,28,2541455,329,141.285
E,4,2401440,sinestep1.wav,None,1000,28,2543455,329,143.285
E,4,2401440,sinestep3.wav,None,1000,28,2545455,328,145.285
E,4,2401440,vowelstep5.wav,None,1000,28,2547455,309,147.285
E,4,2401440,silence.wav,None,1000,28,2549455,319,149.285
E,4,2401440,sinestep3_catch.wav,None,1000,28,2551455,318,151.285
E,4,2401440,silence.wav,1,162,28,2553455,319,153.285
E,4,2401440,sinestep7.wav,None,1000,28,2555455,1163,155.285
E,4,2401440,sinestep5.wav,None,1000,28,2557455,328,157.285
E,4,2401440,silence.wav,None,1000,28,2559455,329,159.285
E,4,2401440,vowelstep5.wav,None,1000,28,2561455,308,161.285
E,4,2401440,vowelstep1.wav,None,1000,28,2563455,319,163.285
E,4,2401440,vowelstep3.wav,None,1000,28,2565455,317,165.285
E,4,2401440,sinestep5.wav,None,1000,28,2567455,318,167.285
E,4,2401440,sinestep7.wav,None,1000,28,2569455,318,169.285
E,4,2401440,vowelstep1.wav,None,1000,28,2571456,327,171.285
E,4,2401440,vowelstep7.wav,None,1000,28,2573456,327,173.285
E,4,2401440,sinestep3.wav,None,1000,28,2575456,337,175.285
E,4,2401440,silence.wav,None,1000,28,2577455,316,177.285
E,4,2401440,sinestep1_catch.wav,1,625,28,2579455,316,179.285
E,4,2401440,sinestep7.wav,None,1000,28,2581455,691,181.285
E,4,2401440,vowelstep1.wav,None,1000,28,2583455,317,183.285
E,4,2401440,sinestep5.wav,None,1000,28,2585455,326,185.285
E,4,2401440,sinestep5.wav,1,190,28,2587456,326,187.285
E,4,2401440,vowelstep1.wav,None,1000,28,2589456,1134,189.285
E,4,2401440,sinestep7.wav,None,1000,28,2591456,305,191.285
E,4,2401440,sinestep3.wav,None,1000,28,2593456,316,193.285
E,4,2401440,sinestep7.wav,None,1000,28,2595456,315,195.285
E,4,2401440,silence.wav,None,1000,28,2597456,325,197.285
E,4,2401440,vowelstep1.wav,None,1000,28,2599456,326,199.285
E,4,2401440,sinestep1.wav,None,1000,28,2601455,326,201.285
E,4,2401440,vowelstep1.wav,None,1000,28,2603455,326,203.285
E,4,2401440,vowelstep1.wav,None,1000,28,2605456,336,205.285
E,4,2401440,vowelstep1_catch.wav,None,1000,28,2607456,334,207.285
E,4,2401440,vowelstep1.wav,None,1000,28,2609456,344,209.285
E,4,2401440,vowelstep1.wav,None,1000,28,2611456,315,211.285
E,4,2401440,silence.wav,None,1000,28,2613456,325,213.285
E,4,2401440,sinestep7.wav,None,1000,28,2615456,325,215.285
E,4,2401440,vowelstep7.wav,None,1000,28,2617456,335,217.285
E,4,2401440,vowelstep3_catch.wav,None,1000,28,2619456,335,219.285
E,4,2401440,vowelstep5.wav,None,1000,28,2621456,335,221.285
E,4,2401440,sinestep3.wav,None,1000,28,2623457,335,223.285
E,4,2401440,silence.wav,None,1000,28,2625456,344,225.285
E,4,2401440,sinestep1.wav,None,1000,28,2627456,325,227.285
E,4,2401440,sinestep5.wav,None,1000,28,2629456,324,229.285
E,4,2401440,sinestep5.wav,None,1000,28,2631456,323,231.285
E,4,2401440,sinestep3.wav,None,1000,28,2633456,334,233.285
E,4,2401440,sinestep5.wav,None,1000,28,2635456,334,235.285
E,4,2401440,vowelstep3.wav,None,1000,28,2637456,333,237.285
E,4,2401440,sinestep7.wav,None,1000,28,2639456,344,239.285
E,4,2401440,sinestep7.wav,None,1000,28,2641457,320,241.285
E,4,2401440,silence.wav,None,1000,28,2643457,321,243.285
E,4,2401440,sinestep3.wav,None,1000,28,2645457,332,245.285
E,4,2401440,sinestep3.wav,None,1000,28,2647457,333,247.285
E,4,2401440,vowelstep3.wav,None,1000,28,2649456,332,249.285
E,4,2401440,silence.wav,None,1000,28,2651456,332,251.285
E,4,2401440,sinestep7.wav,None,1000,28,2653456,306,253.285
E,4,2401440,silence.wav,None,1000,28,2655456,322,255.285
E,4,2401440,vowelstep7.wav,None,1000,28,2657457,321,257.285
E,4,2401440,vowelstep3.wav,None,1000,28,2659457,321,259.285
E,4,2401440,silence.wav,None,1000,28,2661457,331,261.285
E,4,2401440,vowelstep3.wav,None,1000,28,2663457,331,263.285
E,4,2401440,vowelstep1.wav,None,1000,28,2665457,331,265.285
E,4,2401440,vowelstep5.wav,None,1000,28,2667457,342,267.285
E,4,2401440,silence.wav,None,1000,28,2669457,321,269.285
E,4,2401440,vowelstep3.wav,None,1000,28,2671457,321,271.285
E,4,2401440,sinestep1.wav,None,1000,28,2673456,321,273.285
E,4,2401440,vowelstep5_catch.wav,None,1000,28,2675457,322,275.285
E,4,2401440,sinestep7.wav,None,1000,28,2677457,330,277.285
E,4,2401440,sinestep7.wav,None,1000,28,2679457,328,279.285
E,4,2401440,vowelstep7.wav,None,1000,28,2681457,341,281.285
E,4,2401440,silence.wav,None,1000,28,2683457,318,283.285
E,4,2401440,sinestep5.wav,None,1000,28,2685457,320,285.285
E,4,2401440,silence.wav,None,1000,28,2687457,316,287.285
E,4,2401440,silence.wav,None,1000,28,2689457,326,289.285
E,4,2401440,vowelstep5.wav,None,1000,28,2691457,331,291.285
E,4,2401440,vowelstep5.wav,None,1000,28,2693458,327,293.285
E,4,2401440,silence.wav,None,1000,28,2695458,330,295.285
E,4,2401440,vowelstep5.wav,None,1000,28,2697457,320,297.285
E,4,2401440,vowelstep7_catch.wav,None,1000,28,2699457,321,299.285
E,4,2401440,vowelstep7_catch.wav,None,1000,28,2701457,320,301.285
E,4,2401440,vowelstep5.wav,None,1000,28,2703457,321,303.285
E,4,2401440,sinestep1.wav,None,1000,28,2705457,332,305.285
E,4,2401440,vowelstep3.wav,None,1000,28,2707457,332,307.285
E,4,2401440,vowelstep5_catch.wav,None,1000,28,2709457,342,309.285
E,4,2401440,vowelstep7.wav,None,1000,28,2711458,312,311.285
E,4,2401440,vowelstep5.wav,None,1000,28,2713458,321,313.285
E,4,2401440,vowelstep7.wav,None,1000,28,2715458,322,315.285
E,4,2401440,vowelstep1.wav,None,1000,28,2717458,331,317.285
E,4,2401440,vowelstep3_catch.wav,None,1000,28,2719458,331,319.285
J,5,2805144,sinestep5_catch.wav,1,659,28,2805159,0,1.285
J,5,2805144,sinestep5.wav,None,1000,28,2807159,669,3.285
J,5,2805144,sinestep3.wav,None,1000,28,2809159,339,5.285
J,5,2805144,sinestep1.wav,None,1000,28,2811159,320,7.285
J,5,2805144,sinestep7.wav,1,259,28,2813159,319,9.285
J,5,2805144,vowelstep3.wav,None,1000,28,2815160,1061,11.285
J,5,2805144,sinestep1.wav,None,1000,28,2817160,329,13.285
J,5,2805144,vowelstep5.wav,None,1000,28,2819159,328,15.285
J,5,2805144,vowelstep3.wav,None,1000,28,2821159,329,17.285
J,5,2805144,vowelstep1.wav,None,1000,28,2823159,308,19.285
J,5,2805144,vowelstep1.wav,None,1000,28,2825159,318,21.285
J,5,2805144,sinestep3.wav,None,1000,28,2827159,318,23.285
J,5,2805144,silence.wav,None,1000,28,2829159,318,25.285
J,5,2805144,vowelstep7.wav,None,1000,28,2831159,329,27.285
J,5,2805144,sinestep3.wav,None,1000,28,2833160,328,29.285
J,5,2805144,sinestep7.wav,None,1000,28,2835160,327,31.285
J,5,2805144,silence.wav,1,255,28,2837160,308,33.285
J,5,2805144,vowelstep5.wav,None,1000,28,2839160,1062,35.285
J,5,2805144,sinestep1.wav,None,1000,28,2841160,317,37.285
J,5,2805144,sinestep1_catch.wav,1,379,28,2843159,316,39.285
J,5,2805144,sinestep7.wav,None,1000,28,2845159,937,41.285
J,5,2805144,vowelstep7.wav,None,1000,28,2847159,328,43.285
J,5,2805144,sinestep3_catch.wav,1,815,28,2849159,328,45.285
J,5,2805144,vowelstep3.wav,None,1000,28,2851160,520,47.285
J,5,2805144,vowelstep7.wav,None,1000,28,2853160,337,49.285
J,5,2805144,sinestep1.wav,None,1000,28,2855160,336,51.285
J,5,2805144,vowelstep3.wav,None,1000,28,2857160,346,53.285
J,5,2805144,vowelstep1.wav,None,1000,28,2859160,327,55.285
J,5,2805144,sinestep5.wav,None,1000,28,2861160,327,57.285
J,5,2805144,sinestep5_catch.wav,1,205,28,2863160,327,59.285
J,5,2805144,sinestep5.wav,None,1000,28,2865160,1130,61.285
J,5,2805144,vowelstep7.wav,None,1000,28,2867160,337,63.285
J,5,2805144,sinestep7.wav,None,1000,28,2869160,335,65.285
J,5,2805144,vowelstep1.wav,None,1000,28,2871160,345,67.285
J,5,2805144,sinestep7_catch.wav,1,293,28,2873160,316,69.285
J,5,2805144,silence.wav,None,1000,28,2875160,1032,71.285
J,5,2805144,vowelstep5.wav,None,1000,28,2877160,325,73.285
J,5,2805144,sinestep5.wav,None,1000,28,2879160,336,75.285
J,5,2805144,sinestep5.wav,None,1000,28,2881160,333,77.285
J,5,2805144,vowelstep3.wav,None,1000,28,2883160,336,79.285
J,5,2805144,vowelstep5.wav,None,1000,28,2885161,335,81.285
J,5,2805144,sinestep3.wav,None,1000,28,2887161,324,83.285
J,5,2805144,silence.wav,None,1000,28,2889161,323,85.285
J,5,2805144,vowelstep3.wav,None,1000,28,2891161,324,87.285
J,5,2805144,vowelstep7.wav,None,1000,28,2893160,335,89.285
J,5,2805144,silence.wav,None,1000,28,2895160,334,91.285
J,5,2805144,sinestep3.wav,None,1000,28,2897160,335,93.285
J,5,2805144,silence.wav,None,1000,28,2899160,344,95.285
J,5,2805144,sinestep1.wav,None,1000,28,2901160,325,97.285
J,5,2805144,sinestep5_catch.wav,1,375,28,2903161,325,99.285
J,5,2805144,sinestep7.wav,None,1000,28,2905161,948,101.285
J,5,2805144,sinestep5.wav,None,1000,28,2907161,324,103.285
J,5,2805144,sinestep5.wav,None,1000,28,2909161,334,105.285
J,5,2805144,sinestep3.wav,None,1000,28,2911161,335,107.285
J,5,2805144,sinestep3_catch.wav,1,350,28,2913161,331,109.285
J,5,2805144,sinestep3.wav,None,1000,28,2915160,965,111.285
J,5,2805144,silence.wav,None,1000,28,2917160,326,113.285
J,5,2805144,sinestep1.wav,None,1000,28,2919160,325,115.285
J,5,2805144,silence.wav,None,1000,28,2921161,321,117.285
J,5,2805144,vowelstep3.wav,None,1000,28,2923161,334,119.285
J,5,2805144,vowelstep5.wav,None,1000,28,2925161,335,121.285
J,5,2805144,vowelstep7.wav,None,1000,28,2927161,335,123.285
J,5,2805144,silence.wav,None,1000,28,2929161,345,125.285
J,5,2805144,sinestep1.wav,None,1000,28,2931161,323,127.285
J,5,2805144,sinestep3.wav,None,1000,28,2933161,324,129.285
J,5,2805144,sinestep7.wav,None,1000,28,2935161,325,131.285
J,5,2805144,silence.wav,None,1000,28,2937162,334,133.285
J,5,2805144,sinestep1.wav,None,1000,28,2939161,333,135.285
J,5,2805144,vowelstep7.wav,None,1000,28,2941161,333,137.285
J,5,2805144,sinestep5.wav,None,1000,28,2943161,313,139.285
J,5,2805144,vowelstep1.wav,None,1000,28,2945161,324,141.285
J,5,2805144,vowelstep7.wav,None,1000,28,2947161,321,143.285
J,5,2805144,vowelstep3.wav,None,1000,28,2949161,323,145.285
J,5,2805144,vowelstep3.wav,None,1000,28,2951161,332,147.285
J,5,2805144,sinestep7.wav,None,1000,28,2953161,332,149.285
J,5,2805144,vowelstep5.wav,None,1000,28,2955162,333,151.285
J,5,2805144,silence.wav,None,1000,28,2957162,340,153.285
J,5,2805144,sinestep1.wav,None,1000,28,2959162,322,155.285
J,5,2805144,sinestep3.wav,None,1000,28,2961162,320,157.285
J,5,2805144,silence.wav,None,1000,28,2963162,322,159.285
J,5,2805144,sinestep1.wav,None,1000,28,2965161,332,161.285
J,5,2805144,vowelstep7.wav,None,1000,28,2967161,331,163.285
J,5,2805144,vowelstep7.wav,None,1000,28,2969161,332,165.285
J,5,2805144,sinestep1_catch.wav,1,260,28,2971161,342,167.285
J,5,2805144,vowelstep1_catch.wav,None,1000,28,2973162,1060,169.285
J,5,2805144,vowelstep1.wav,None,1000,28,2975162,322,171.285
J,5,2805144,vowelstep7.wav,None,1000,28,2977162,321,173.285
J,5,2805144,sinestep1.wav,None,1000,28,2979162,331,175.285
J,5,2805144,vowelstep5.wav,None,1000,28,2981162,330,177.285
J,5,2805144,vowelstep5.wav,None,1000,28,2983162,330,179.285
J,5,2805144,sinestep5.wav,None,1000,28,2985162,307,181.285
J,5,2805144,sinestep7.wav,None,1000,28,2987162,310,183.285
J,5,2805144,sinestep7.wav,None,1000,28,2989161,319,185.285
J,5,2805144,sinestep1.wav,None,1000,28,2991162,319,187.285
J,5,2805144,vowelstep1.wav,None,1000,28,2993162,328,189.285
J,5,2805144,silence.wav,None,1000,28,2995162,329,191.285
J,5,2805144,sinestep5.wav,None,1000,28,2997162,329,193.285
J,5,2805144,vowelstep5.wav,None,1000,28,2999162,329,195.285
J,5,2805144,vowelstep1.wav,None,1000,28,3001162,318,197.285
J,5,2805144,vowelstep1.wav,None,1000,28,3003162,319,199.285
J,5,2805144,sinestep3.wav,None,1000,28,3005162,319,201.285
J,5,2805144,sinestep3.wav,None,1000,28,3007163,317,203.285
J,5,2805144,silence.wav,None,1000,28,3009163,328,205.285
J,5,2805144,sinestep5.wav,None,1000,28,3011163,323,207.285
J,5,2805144,vowelstep1.wav,None,1000,28,3013162,327,209.285
J,5,2805144,vowelstep5.wav,None,1000,28,3015162,308,211.285
J,5,2805144,vowelstep3.wav,None,1000,28,3017162,317,213.285
J,5,2805144,vowelstep3.wav,None,1000,28,3019162,317,215.285
J,5,2805144,silence.wav,None,1000,28,3021162,328,217.285
J,5,2805144,sinestep1.wav,None,1000,28,3023162,327,219.285
J,5,2805144,vowelstep3.wav,None,1000,28,3025163,325,221.285
J,5,2805144,sinestep7.wav,None,1000,28,3027163,323,223.285
J,5,2805144,vowelstep7.wav,None,1000,28,3029163,313,225.285
J,5,2805144,silence.wav,None,1000,28,3031163,314,227.285
J,5,2805144,vowelstep5.wav,None,1000,28,3033163,311,229.285
J,5,2805144,silence.wav,None,1000,28,3035163,313,231.285
J,5,2805144,sinestep3.wav,None,1000,28,3037162,318,233.285
J,5,2805144,vowelstep5.wav,None,1000,28,3039162,327,235.285
J,5,2805144,vowelstep3.wav,None,1000,28,3041162,339,237.285
J,5,2805144,vowelstep5.wav,None,1000,28,3043163,339,239.285
J,5,2805144,vowelstep7.wav,None,1000,28,3045163,317,241.285
J,5,2805144,vowelstep1.wav,None,1000,28,3047163,317,243.285
J,5,2805144,sinestep7.wav,None,1000,28,3049163,317,245.285
J,5,2805144,sinestep7.wav,None,1000,28,3051163,328,247.285
J,5,2805144,silence.wav,None,1000,28,3053163,328,249.285
J,5,2805144,vowelstep1.wav,None,1000,28,3055163,325,251.285
J,5,2805144,vowelstep3_catch.wav,None,1000,28,3057163,338,253.285
J,5,2805144,vowelstep1.wav,None,1000,28,3059163,317,255.285
J,5,2805144,vowelstep5_catch.wav,None,1000,28,3061163,316,257.285
J,5,2805144,silence.wav,None,1000,28,3063163,316,259.285
J,5,2805144,sinestep5.wav,None,1000,28,3065163,326,261.285
J,5,2805144,vowelstep1.wav,None,1000,28,3067163,327,263.285
J,5,2805144,sinestep5.wav,None,1000,28,3069163,326,265.285
J,5,2805144,vowelstep3.wav,None,1000,28,3071163,336,267.285
J,5,2805144,sinestep5.wav,None,1000,28,3073163,317,269.285
J,5,2805144,sinestep7.wav,None,1000,28,3075163,316,271.285
J,5,2805144,silence.wav,None,1000,28,3077147,315,273.285
J,5,2805144,vowelstep7_catch.wav,None,1000,28,3079164,345,275.285
J,5,2805144,sinestep3.wav,None,1000,28,3081164,325,277.285
J,5,2805144,vowelstep5.wav,None,1000,28,3083164,335,279.285
J,5,2805144,silence.wav,None,1000,28,3085163,305,281.285
J,5,2805144,silence.wav,None,1000,28,3087147,335,283.285
J,5,2805144,silence.wav,None,1000,28,3089147,336,285.285
J,5,2805144,vowelstep7.wav,None,1000,28,3091163,345,287.285
J,5,2805144,sinestep3.wav,None,1000,28,3093163,325,289.285
J,5,2805144,vowelstep5_catch.wav,None,1000,28,3095147,325,291.285
J,5,2805144,silence.wav,None,1000,28,3097164,324,293.285
J,5,2805144,sinestep7.wav,None,1000,28,3099164,335,295.285
J,5,2805144,vowelstep1.wav,None,1000,28,3101164,334,297.285
J,5,2805144,silence.wav,None,1000,28,3103147,335,299.285
J,5,2805144,sinestep1.wav,None,1000,28,3105147,344,301.285
J,5,2805144,sinestep5.wav,None,1000,28,3107147,343,303.285
J,5,2805144,vowelstep5.wav,None,1000,28,3109163,345,305.285
J,5,2805144,vowelstep3.wav,None,1000,28,3111163,324,307.285
J,5,2805144,sinestep7.wav,None,1000,28,3113148,335,309.285
J,5,2805144,vowelstep7.wav,None,1000,28,3115164,333,311.285
J,5,2805144,vowelstep3_catch.wav,None,1000,28,3117164,334,313.285
J,5,2805144,vowelstep1_catch.wav,None,1000,28,3119147,343,315.285
J,5,2805144,sinestep3.wav,None,1000,28,3121147,344,317.285
J,5,2805144,sinestep1.wav,None,1000,28,3123147,343,319.285
F,6,3182299,sinestep1.wav,None,1000,28,3182315,0,1.285
F,6,3182299,vowelstep5.wav,None,1000,28,3184315,314,3.285
F,6,3182299,vowelstep3.wav,None,1000,28,3186315,324,5.285
F,6,3182299,sinestep5.wav,None,1000,28,3188315,323,7.285
F,6,3182299,vowelstep7.wav,None,1000,28,3190315,324,9.285
F,6,3182299,silence.wav,None,1000,28,3192315,335,11.285
F,6,3182299,vowelstep5.wav,None,1000,28,3194315,334,13.285
F,6,3182299,sinestep3.wav,None,1000,28,3196315,335,15.285
F,6,3182299,sinestep3.wav,None,1000,28,3198315,345,17.285
F,6,3182299,silence.wav,None,1000,28,3200316,324,19.285
F,6,3182299,vowelstep7.wav,None,1000,28,3202316,322,21.285
F,6,3182299,vowelstep7.wav,None,1000,28,3204316,323,23.285
F,6,3182299,vowelstep1_catch.wav,None,1000,28,3206315,333,25.285
F,6,3182299,vowelstep3_catch.wav,None,1000,28,3208315,334,27.285
F,6,3182299,vowelstep1.wav,None,1000,28,3210315,331,29.285
F,6,3182299,sinestep5.wav,None,1000,28,3212315,344,31.285
F,6,3182299,sinestep5.wav,None,1000,28,3214315,324,33.285
F,6,3182299,vowelstep7.wav,None,1000,28,3216315,323,35.285
F,6,3182299,sinestep3.wav,None,1000,28,3218316,323,37.285
F,6,3182299,sinestep7.wav,None,1000,28,3220316,332,39.285
F,6,3182299,vowelstep5_catch.wav,None,1000,28,3222316,328,41.285
F,6,3182299,sinestep1.wav,None,1000,28,3224316,329,43.285
F,6,3182299,vowelstep7_catch.wav,None,1000,28,3226316,342,45.285
F,6,3182299,vowelstep3.wav,None,1000,28,3228316,323,47.285
F,6,3182299,sinestep1.wav,None,1000,28,3230315,322,49.285
F,6,3182299,sinestep7.wav,None,1000,28,3232315,322,51.285
F,6,3182299,silence.wav,None,1000,28,3234316,332,53.285
F,6,3182299,sinestep7.wav,1,383,28,3236316,331,55.285
F,6,3182299,vowelstep1.wav,None,1000,28,3238316,947,57.285
F,6,3182299,vowelstep3.wav,None,1000,28,3240316,331,59.285
F,6,3182299,vowelstep7_catch.wav,None,1000,28,3242316,341,61.285
F,6,3182299,sinestep5.wav,None,1000,28,3244316,321,63.285
F,6,3182299,sinestep3.wav,None,1000,28,3246316,320,65.285
F,6,3182299,vowelstep3.wav,None,1000,28,3248316,321,67.285
F,6,3182299,silence.wav,None,1000,28,3250316,330,69.285
F,6,3182299,vowelstep1.wav,None,1000,28,3252317,331,71.285
F,6,3182299,vowelstep1.wav,None,1000,28,3254316,330,73.285
F,6,3182299,vowelstep5_catch.wav,None,1000,28,3256316,310,75.285
F,6,3182299,silence.wav,None,1000,28,3258316,320,77.285
F,6,3182299,vowelstep3.wav,None,1000,28,3260316,320,79.285
F,6,3182299,vowelstep5.wav,None,1000,28,3262316,330,81.285
F,6,3182299,vowelstep3_catch.wav,None,1000,28,3264316,330,83.285
F,6,3182299,vowelstep3.wav,None,1000,28,3266316,330,85.285
F,6,3182299,sinestep7.wav,None,1000,28,3268316,329,87.285
F,6,3182299,vowelstep1.wav,None,1000,28,3270317,340,89.285
F,6,3182299,sinestep1.wav,None,1000,28,3272317,319,91.285
F,6,3182299,vowelstep1_catch.wav,None,1000,28,3274317,319,93.285
F,6,3182299,vowelstep5.wav,None,1000,28,3276317,318,95.285
F,6,3182299,sinestep7.wav,None,1000,28,3278316,329,97.285
F,6,3182299,vowelstep7.wav,None,1000,28,3280316,329,99.285
F,6,3182299,vowelstep3.wav,None,1000,28,3282316,328,101.285
F,6,3182299,sinestep3.wav,None,1000,28,3284316,309,103.285
F,6,3182299,silence.wav,None,1000,28,3286316,318,105.285
F,6,3182299,sinestep1.wav,None,1000,28,3288317,318,107.285
F,6,3182299,sinestep1.wav,None,1000,28,3290317,316,109.285
F,6,3182299,silence.wav,None,1000,28,3292317,328,111.285
F,6,3182299,sinestep7.wav,None,1000,28,3294317,327,113.285
F,6,3182299,vowelstep3.wav,None,1000,28,3296317,327,115.285
F,6,3182299,sinestep3.wav,None,1000,28,3298317,307,117.285
F,6,3182299,vowelstep3.wav,None,1000,28,3300317,318,119.285
F,6,3182299,vowelstep7.wav,None,1000,28,3302316,317,121.285
F,6,3182299,vowelstep7.wav,None,1000,28,3304317,317,123.285
F,6,3182299,vowelstep5.wav,None,1000,28,3306317,326,125.285
F,6,3182299,sinestep1.wav,None,1000,28,3308317,326,127.285
F,6,3182299,silence.wav,None,1000,28,3310317,323,129.285
F,6,3182299,sinestep1.wav,None,1000,28,3312317,336,131.285
F,6,3182299,sinestep3.wav,None,1000,28,3314317,317,133.285
F,6,3182299,sinestep1_catch.wav,1,521,28,3316317,317,135.285
F,6,3182299,sinestep3.wav,None,1000,28,3318317,795,137.285
F,6,3182299,sinestep3.wav,None,1000,28,3320317,327,139.285
F,6,3182299,silence.wav,None,1000,28,3322318,326,141.285
F,6,3182299,silence.wav,None,1000,28,3324318,326,143.285
F,6,3182299,sinestep7.wav,None,1000,28,3326318,306,145.285
F,6,3182299,sinestep5.wav,None,1000,28,3328317,305,147.285
F,6,3182299,vowelstep1.wav,None,1000,28,3330317,315,149.285
F,6,3182299,sinestep7.wav,None,1000,28,3332317,316,151.285
F,6,3182299,silence.wav,None,1000,28,3334317,315,153.285
F,6,3182299,sinestep3_catch.wav,1,382,28,3336317,326,155.285
F,6,3182299,vowelstep5.wav,None,1000,28,3338317,942,157.285
F,6,3182299,sinestep3.wav,None,1000,28,3340318,336,159.285
F,6,3182299,vowelstep5.wav,None,1000,28,3342318,334,161.285
F,6,3182299,sinestep3.wav,None,1000,28,3344318,335,163.285
F,6,3182299,vowelstep3.wav,None,1000,28,3346318,344,165.285
F,6,3182299,vowelstep1.wav,None,1000,28,3348318,315,167.285
F,6,3182299,sinestep5.wav,None,1000,28,3350318,325,169.285
F,6,3182299,vowelstep5.wav,None,1000,28,3352317,323,171.285
F,6,3182299,vowelstep1.wav,None,1000,28,3354317,333,173.285
F,6,3182299,vowelstep1.wav,None,1000,28,3356317,335,175.285
F,6,3182299,sinestep7.wav,None,1000,28,3358318,334,177.285
F,6,3182299,vowelstep1.wav,None,1000,28,3360318,334,179.285
F,6,3182299,sinestep5.wav,None,1000,28,3362318,344,181.285
F,6,3182299,vowelstep7.wav,None,1000,28,3364318,323,183.285
F,6,3182299,sinestep1.wav,None,1000,28,3366318,324,185.285
F,6,3182299,vowelstep7.wav,None,1000,28,3368318,324,187.285
F,6,3182299,sinestep5.wav,None,1000,28,3370318,331,189.285
F,6,3182299,vowelstep5.wav,None,1000,28,3372318,334,191.285
F,6,3182299,silence.wav,None,1000,28,3374319,331,193.285
F,6,3182299,sinestep7.wav,None,1000,28,3376318,313,195.285
F,6,3182299,vowelstep5.wav,None,1000,28,3378318,322,197.285
F,6,3182299,vowelstep7.wav,None,1000,28,3380318,322,199.285
F,6,3182299,silence.wav,None,1000,28,3382318,333,201.285
F,6,3182299,vowelstep1.wav,None,1000,28,3384301,332,203.285
F,6,3182299,vowelstep7.wav,None,1000,28,3386318,332,205.285
F,6,3182299,vowelstep7.wav,None,1000,28,3388318,333,207.285
F,6,3182299,vowelstep3.wav,None,1000,28,3390318,312,209.285
F,6,3182299,vowelstep3.wav,None,1000,28,3392319,323,211.285
F,6,3182299,silence.wav,None,1000,28,3394319,321,213.285
F,6,3182299,sinestep7.wav,None,1000,28,3396319,319,215.285
F,6,3182299,sinestep1.wav,None,1000,28,3398319,332,217.285
F,6,3182299,silence.wav,None,1000,28,3400302,332,219.285
F,6,3182299,vowelstep1.wav,None,1000,28,3402302,332,221.285
F,6,3182299,sinestep5_catch.wav,1,445,28,3404318,341,223.285
F,6,3182299,sinestep1.wav,None,1000,28,3406318,875,225.285
F,6,3182299,silence.wav,None,1000,28,3408318,321,227.285
F,6,3182299,sinestep7.wav,None,1000,28,3410319,321,229.285
F,6,3182299,sinestep7.wav,None,1000,28,3412319,330,231.285
F,6,3182299,silence.wav,None,1000,28,3414319,330,233.285
F,6,3182299,vowelstep5.wav,None,1000,28,3416302,328,235.285
F,6,3182299,sinestep7.wav,None,1000,28,3418302,340,237.285
F,6,3182299,sinestep5.wav,None,1000,28,3420302,340,239.285
F,6,3182299,sinestep5.wav,None,1000,28,3422319,340,241.285
F,6,3182299,silence.wav,None,1000,28,3424318,320,243.285
F,6,3182299,vowelstep3.wav,None,1000,28,3426318,329,245.285
F,6,3182299,vowelstep3.wav,None,1000,28,3428303,328,247.285
F,6,3182299,silence.wav,None,1000,28,3430319,358,249.285
F,6,3182299,sinestep1.wav,None,1000,28,3432302,339,251.285
F,6,3182299,sinestep1.wav,None,1000,28,3434302,336,253.285
F,6,3182299,vowelstep5.wav,None,1000,28,3436302,339,255.285
F,6,3182299,silence.wav,None,1000,28,3438302,349,257.285
F,6,3182299,sinestep5.wav,None,1000,28,3440302,349,259.285
F,6,3182299,sinestep5.wav,None,1000,28,3442319,349,261.285
F,6,3182299,sinestep5.wav,None,1000,28,3444303,327,263.285
F,6,3182299,sinestep7.wav,None,1000,28,3446303,337,265.285
F,6,3182299,sinestep7_catch.wav,1,732,28,3448303,338,267.285
F,6,3182299,sinestep7_catch.wav,1,321,28,3450303,605,269.285
F,6,3182299,sinestep1.wav,None,1000,28,3452303,1016,271.285
F,6,3182299,vowelstep7.wav,None,1000,28,3454303,348,273.285
F,6,3182299,sinestep3.wav,None,1000,28,3456302,348,275.285
F,6,3182299,sinestep3.wav,None,1000,28,3458302,357,277.285
F,6,3182299,silence.wav,None,1000,28,3460319,337,279.285
F,6,3182299,sinestep5_catch.wav,1,291,28,3462303,318,281.285
F,6,3182299,sinestep5.wav,None,1000,28,3464303,1046,283.285
F,6,3182299,silence.wav,None,1000,28,3466303,346,285.285
F,6,3182299,vowelstep5.wav,None,1000,28,3468303,346,287.285
F,6,3182299,silence.wav,None,1000,28,3470303,346,289.285
F,6,3182299,sinestep1.wav,None,1000,28,3472303,347,291.285
F,6,3182299,sinestep3.wav,None,1000,28,3474303,328,293.285
F,6,3182299,vowelstep3.wav,None,1000,28,3476303,337,295.285
F,6,3182299,silence.wav,None,1000,28,3478319,337,297.285
F,6,3182299,sinestep5.wav,None,1000,28,3480303,318,299.285
F,6,3182299,vowelstep5.wav,None,1000,28,3482303,345,301.285
F,6,3182299,vowelstep5.wav,None,1000,28,3484303,344,303.285
F,6,3182299,vowelstep1.wav,None,1000,28,3486303,345,305.285
F,6,3182299,sinestep3.wav,None,1000,28,3488303,355,307.285
F,6,3182299,silence.wav,None,1000,28,3490303,335,309.285
F,6,3182299,sinestep3_catch.wav,None,1000,28,3492303,335,311.285
F,6,3182299,vowelstep1.wav,None,1000,28,3494303,336,313.285
F,6,3182299,vowelstep7.wav,None,1000,28,3496304,346,315.285
F,6,3182299,vowelstep7.wav,None,1000,28,3498304,344,317.285
F,6,3182299,vowelstep1.wav,None,1000,28,3500304,344,319.285
I,7,3559120,vowelstep7.wav,None,1000,28,3559138,0,1.285
I,7,3559120,sinestep1_catch.wav,1,339,28,3561137,332,3.285
I,7,3559120,sinestep3.wav,None,1000,28,3563137,1000,5.285
I,7,3559120,silence.wav,None,1000,28,3565137,322,7.285
I,7,3559120,vowelstep7.wav,None,1000,28,3567138,323,9.285
I,7,3559120,sinestep3_catch.wav,1,114,28,3569138,321,11.285
I,7,3559120,vowelstep3.wav,None,1000,28,3571138,1205,13.285
I,7,3559120,vowelstep3.wav,None,1000,28,3573138,331,15.285
I,7,3559120,silence.wav,None,1000,28,3575138,331,17.285
I,7,3559120,vowelstep1.wav,None,1000,28,3577138,342,19.285
I,7,3559120,vowelstep5.wav,None,1000,28,3579138,321,21.285
I,7,3559120,vowelstep7.wav,None,1000,28,3581138,320,23.285
I,7,3559120,sinestep1.wav,None,1000,28,3583138,321,25.285
I,7,3559120,vowelstep1.wav,None,1000,28,3585138,331,27.285
I,7,3559120,sinestep5_catch.wav,1,397,28,3587138,330,29.285
I,7,3559120,sinestep5.wav,None,1000,28,3589138,932,31.285
I,7,3559120,vowelstep1.wav,None,1000,28,3591138,337,33.285
I,7,3559120,sinestep7.wav,None,1000,28,3593138,319,35.285
I,7,3559120,vowelstep3.wav,None,1000,28,3595138,320,37.285
I,7,3559120,vowelstep1.wav,None,1000,28,3597138,320,39.285
I,7,3559120,vowelstep1.wav,None,1000,28,3599138,330,41.285
I,7,3559120,sinestep3.wav,None,1000,28,3601138,329,43.285
I,7,3559120,sinestep5.wav,None,1000,28,3603139,328,45.285
I,7,3559120,sinestep5.wav,None,1000,28,3605139,338,47.285
I,7,3559120,vowelstep3.wav,None,1000,28,3607139,318,49.285
I,7,3559120,silence.wav,None,1000,28,3609138,318,51.285
I,7,3559120,sinestep7_catch.wav,1,217,28,3611138,318,53.285
I,7,3559120,silence.wav,None,1000,28,3613138,1100,55.285
I,7,3559120,sinestep1.wav,None,1000,28,3615138,328,57.285
I,7,3559120,vowelstep1.wav,None,1000,28,3617138,328,59.285
I,7,3559120,sinestep1.wav,None,1000,28,3619139,324,61.285
I,7,3559120,sinestep1.wav,None,1000,28,3621139,303,63.285
I,7,3559120,vowelstep7.wav,None,1000,28,3623139,317,65.285
I,7,3559120,sinestep5.wav,None,1000,28,3625139,317,67.285
I,7,3559120,sinestep5_catch.wav,1,247,28,3627139,326,69.285
I,7,3559120,vowelstep7.wav,None,1000,28,3629139,1078,71.285
I,7,3559120,vowelstep5.wav,None,1000,28,3631139,326,73.285
I,7,3559120,sinestep3.wav,None,1000,28,3633139,324,75.285
I,7,3559120,vowelstep1.wav,None,1000,28,3635138,315,77.285
I,7,3559120,sinestep3.wav,None,1000,28,3637139,315,79.285
I,7,3559120,sinestep5.wav,None,1000,28,3639139,315,81.285
I,7,3559120,sinestep5.wav,None,1000,28,3641139,314,83.285
I,7,3559120,vowelstep5.wav,None,1000,28,3643139,324,85.285
I,7,3559120,vowelstep7.wav,None,1000,28,3645139,324,87.285
I,7,3559120,sinestep3.wav,None,1000,28,3647139,324,89.285
I,7,3559120,vowelstep3.wav,None,1000,28,3649139,305,91.285
I,7,3559120,sinestep3.wav,None,1000,28,3651139,314,93.285
I,7,3559120,vowelstep5.wav,None,1000,28,3653139,314,95.285
I,7,3559120,sinestep7.wav,None,1000,28,3655140,324,97.285
I,7,3559120,sinestep3_catch.wav,1,218,28,3657140,323,99.285
I,7,3559120,sinestep1_catch.wav,1,275,28,3659139,1103,101.285
I,7,3559120,vowelstep3.wav,None,1000,28,3661139,1047,103.285
I,7,3559120,vowelstep3.wav,None,1000,28,3663139,313,105.285
I,7,3559120,vowelstep5.wav,None,1000,28,3665123,314,107.285
I,7,3559120,sinestep5.wav,None,1000,28,3667139,333,109.285
I,7,3559120,vowelstep5.wav,None,1000,28,3669139,313,111.285
I,7,3559120,vowelstep5.wav,None,1000,28,3671123,323,113.285
I,7,3559120,vowelstep1.wav,None,1000,28,3673123,342,115.285
I,7,3559120,vowelstep1_catch.wav,None,1000,28,3675140,352,117.285
I,7,3559120,sinestep7.wav,None,1000,28,3677140,332,119.285
I,7,3559120,vowelstep3.wav,None,1000,28,3679140,313,121.285
I,7,3559120,sinestep7.wav,None,1000,28,3681123,312,123.285
I,7,3559120,sinestep7.wav,None,1000,28,3683123,342,125.285
I,7,3559120,vowelstep7.wav,None,1000,28,3685139,342,127.285
I,7,3559120,vowelstep3.wav,None,1000,28,3687139,323,129.285
I,7,3559120,sinestep5.wav,None,1000,28,3689124,320,131.285
I,7,3559120,sinestep5.wav,None,1000,28,3691123,331,133.285
I,7,3559120,vowelstep3.wav,None,1000,28,3693140,331,135.285
I,7,3559120,sinestep5.wav,None,1000,28,3695140,311,137.285
I,7,3559120,sinestep1.wav,None,1000,28,3697123,311,139.285
I,7,3559120,vowelstep7.wav,None,1000,28,3699123,341,141.285
I,7,3559120,silence.wav,None,1000,28,3701123,342,143.285
I,7,3559120,vowelstep7.wav,None,1000,28,3703140,351,145.285
I,7,3559120,silence.wav,None,1000,28,3705140,321,147.285
I,7,3559120,sinestep1.wav,None,1000,28,3707124,311,149.285
I,7,3559120,vowelstep1.wav,None,1000,28,3709124,329,151.285
I,7,3559120,vowelstep3.wav,None,1000,28,3711140,340,153.285
I,7,3559120,silence.wav,None,1000,28,3713124,310,155.285
I,7,3559120,silence.wav,None,1000,28,3715123,340,157.285
I,7,3559120,vowelstep1.wav,None,1000,28,3717123,350,159.285
I,7,3559120,sinestep1.wav,None,1000,28,3719123,329,161.285
I,7,3559120,vowelstep3_catch.wav,None,1000,28,3721123,330,163.285
I,7,3559120,sinestep1.wav,None,1000,28,3723140,329,165.285
I,7,3559120,vowelstep5.wav,None,1000,28,3725124,309,167.285
I,7,3559120,vowelstep5_catch.wav,None,1000,28,3727124,339,169.285
I,7,3559120,sinestep1.wav,None,1000,28,3729124,339,171.285
I,7,3559120,silence.wav,None,1000,28,3731124,349,173.285
I,7,3559120,vowelstep5.wav,None,1000,28,3733124,319,175.285
I,7,3559120,sinestep3.wav,None,1000,28,3735124,329,177.285
I,7,3559120,sinestep3.wav,None,1000,28,3737124,329,179.285
I,7,3559120,silence.wav,None,1000,28,3739123,339,181.285
I,7,3559120,silence.wav,None,1000,28,3741124,339,183.285
I,7,3559120,vowelstep3.wav,None,1000,28,3743124,338,185.285
I,7,3559120,vowelstep7.wav,None,1000,28,3745124,338,187.285
I,7,3559120,vowelstep7.wav,None,1000,28,3747124,319,189.285
I,7,3559120,silence.wav,None,1000,28,3749124,327,191.285
I,7,3559120,sinestep3.wav,None,1000,28,3751124,328,193.285
I,7,3559120,sinestep3.wav,None,1000,28,3753124,338,195.285
I,7,3559120,vowelstep5.wav,None,1000,28,3755124,338,197.285
I,7,3559120,vowelstep1.wav,None,1000,28,3757124,338,199.285
I,7,3559120,vowelstep1.wav,None,1000,28,3759125,338,201.285
I,7,3559120,sinestep5.wav,None,1000,28,3761125,347,203.285
I,7,3559120,silence.wav,None,1000,28,3763124,327,205.285
I,7,3559120,sinestep5.wav,None,1000,28,3765124,327,207.285
I,7,3559120,sinestep7.wav,None,1000,28,3767124,327,209.285
I,7,3559120,sinestep1.wav,None,1000,28,3769124,337,211.285
I,7,3559120,sinestep5.wav,None,1000,28,3771124,337,213.285
I,7,3559120,vowelstep5.wav,None,1000,28,3773124,336,215.285
I,7,3559120,sinestep7.wav,None,1000,28,3775124,315,217.285
I,7,3559120,sinestep5.wav,None,1000,28,3777125,327,219.285
I,7,3559120,sinestep3.wav,None,1000,28,3779125,326,221.285
I,7,3559120,silence.wav,None,1000,28,3781125,335,223.285
I,7,3559120,vowelstep7_catch.wav,None,1000,28,3783125,335,225.285
I,7,3559120,sinestep7.wav,None,1000,28,3785125,336,227.285
I,7,3559120,sinestep7.wav,None,1000,28,3787124,336,229.285
I,7,3559120,sinestep3.wav,None,1000,28,3789124,315,231.285
I,7,3559120,vowelstep3.wav,None,1000,28,3791124,325,233.285
I,7,3559120,silence.wav,None,1000,28,3793124,324,235.285
I,7,3559120,sinestep3.wav,None,1000,28,3795125,323,237.285
I,7,3559120,sinestep5.wav,None,1000,28,3797125,331,239.285
I,7,3559120,silence.wav,None,1000,28,3799125,333,241.285
I,7,3559120,vowelstep3.wav,None,1000,28,3801125,333,243.285
I,7,3559120,sinestep1.wav,None,1000,28,3803125,308,245.285
I,7,3559120,sinestep1.wav,None,1000,28,3805125,323,247.285
I,7,3559120,sinestep7.wav,None,1000,28,3807125,324,249.285
I,7,3559120,vowelstep7.wav,None,1000,28,3809125,323,251.285
I,7,3559120,vowelstep5.wav,None,1000,28,3811125,333,253.285
I,7,3559120,silence.wav,None,1000,28,3813125,332,255.285
I,7,3559120,sinestep3.wav,None,1000,28,3815125,331,257.285
I,7,3559120,vowelstep1.wav,None,1000,28,3817125,332,259.285
I,7,3559120,vowelstep1.wav,None,1000,28,3819125,322,261.285
I,7,3559120,silence.wav,None,1000,28,3821125,342,263.285
I,7,3559120,vowelstep3.wav,None,1000,28,3823125,322,265.285
I,7,3559120,silence.wav,None,1000,28,3825125,322,267.285
I,7,3559120,silence.wav,None,1000,28,3827125,331,269.285
I,7,3559120,sinestep7.wav,None,1000,28,3829126,332,271.285
I,7,3559120,sinestep7.wav,None,1000,28,3831126,342,273.285
I,7,3559120,vowelstep5.wav,None,1000,28,3833126,341,275.285
I,7,3559120,silence.wav,None,1000,28,3835125,341,277.285
I,7,3559120,silence.wav,None,1000,28,3837125,351,279.285
I,7,3559120,sinestep1.wav,None,1000,28,3839125,332,281.285
I,7,3559120,silence.wav,None,1000,28,3841125,329,283.285
I,7,3559120,vowelstep7.wav,None,1000,28,3843125,332,285.285
I,7,3559120,vowelstep5_catch.wav,None,1000,28,3845125,341,287.285
I,7,3559120,sinestep7.wav,None,1000,28,3847126,342,289.285
I,7,3559120,sinestep1.wav,None,1000,28,3849126,340,291.285
I,7,3559120,vowelstep3_catch.wav,None,1000,28,3851126,340,293.285
I,7,3559120,sinestep1.wav,None,1000,28,3853126,350,295.285
I,7,3559120,vowelstep7.wav,None,1000,28,3855126,330,297.285
I,7,3559120,sinestep3.wav,None,1000,28,3857126,330,299.285
I,7,3559120,vowelstep5.wav,None,1000,28,3859125,330,301.285
I,7,3559120,vowelstep1_catch.wav,None,1000,28,3861125,340,303.285
I,7,3559120,vowelstep7.wav,None,1000,28,3863125,340,305.285
I,7,3559120,vowelstep5.wav,None,1000,28,3865126,349,307.285
I,7,3559120,sinestep1_catch.wav,1,315,28,3867126,319,309.285
I,7,3559120,silence.wav,None,1000,28,3869126,1014,311.285
I,7,3559120,sinestep7.wav,None,1000,28,3871126,330,313.285
I,7,3559120,silence.wav,None,1000,28,3873126,339,315.285
I,7,3559120,vowelstep1.wav,None,1000,28,3875126,338,317.285
I,7,3559120,sinestep7.wav,None,1000,28,3877126,338,319.285
C,8,3937463,sinestep1.wav,None,1000,28,3937477,0,1.285
C,8,3937463,vowelstep1.wav,None,1000,28,3939477,321,3.285
C,8,3937463,sinestep1.wav,None,1000,28,3941477,322,5.285
C,8,3937463,sinestep1.wav,None,1000,28,3943477,321,7.285
C,8,3937463,vowelstep1.wav,None,1000,28,3945477,331,9.285
C,8,3937463,sinestep1.wav,None,1000,28,3947477,333,11.285
C,8,3937463,sinestep7.wav,None,1000,28,3949477,341,13.285
C,8,3937463,vowelstep7.wav,None,1000,28,3951478,342,15.285
C,8,3937463,vowelstep3.wav,None,1000,28,3953478,315,17.285
C,8,3937463,vowelstep5.wav,None,1000,28,3955478,321,19.285
C,8,3937463,silence.wav,None,1000,28,3957477,318,21.285
C,8,3937463,sinestep3.wav,None,1000,28,3959477,330,23.285
C,8,3937463,vowelstep5.wav,None,1000,28,3961477,331,25.285
C,8,3937463,sinestep1.wav,None,1000,28,3963477,331,27.285
C,8,3937463,vowelstep1.wav,None,1000,28,3965477,340,29.285
C,8,3937463,vowelstep7.wav,None,1000,28,3967477,320,31.285
C,8,3937463,vowelstep3.wav,None,1000,28,3969478,320,33.285
C,8,3937463,sinestep1.wav,None,1000,28,3971478,318,35.285
C,8,3937463,sinestep5.wav,None,1000,28,3973478,329,37.285
C,8,3937463,silence.wav,None,1000,28,3975478,329,39.285
C,8,3937463,vowelstep7.wav,None,1000,28,3977478,329,41.285
C,8,3937463,vowelstep5.wav,None,1000,28,3979478,340,43.285
C,8,3937463,sinestep5.wav,None,1000,28,3981477,320,45.285
C,8,3937463,silence.wav,None,1000,28,3983477,319,47.285
C,8,3937463,sinestep5.wav,None,1000,28,3985477,319,49.285
C,8,3937463,sinestep1.wav,None,1000,28,3987478,318,51.285
C,8,3937463,silence.wav,None,1000,28,3989478,328,53.285
C,8,3937463,vowelstep1.wav,None,1000,28,3991478,328,55.285
C,8,3937463,vowelstep1.wav,None,1000,28,3993478,338,57.285
C,8,3937463,sinestep1.wav,None,1000,28,3995478,318,59.285
C,8,3937463,silence.wav,None,1000,28,3997478,318,61.285
C,8,3937463,vowelstep5.wav,None,1000,28,3999478,313,63.285
C,8,3937463,vowelstep3.wav,None,1000,28,4001478,328,65.285
C,8,3937463,vowelstep3.wav,None,1000,28,4003479,329,67.285
C,8,3937463,vowelstep7.wav,None,1000,28,4005478,327,69.285
C,8,3937463,silence.wav,None,1000,28,4007478,337,71.285
C,8,3937463,vowelstep3.wav,None,1000,28,4009478,316,73.285
C,8,3937463,silence.wav,None,1000,28,4011478,318,75.285
C,8,3937463,sinestep5.wav,None,1000,28,4013478,317,77.285
C,8,3937463,vowelstep7.wav,None,1000,28,4015478,325,79.285
C,8,3937463,vowelstep1_catch.wav,None,1000,28,4017478,327,81.285
C,8,3937463,vowelstep3.wav,None,1000,28,4019478,327,83.285
C,8,3937463,sinestep7.wav,None,1000,28,4021479,337,85.285
C,8,3937463,vowelstep3.wav,None,1000,28,4023479,307,87.285
C,8,3937463,sinestep1.wav,None,1000,28,4025479,315,89.285
C,8,3937463,sinestep7.wav,1,204,28,4027479,315,91.285
C,8,3937463,sinestep7.wav,1,294,28,4029478,1121,93.285
C,8,3937463,sinestep3.wav,None,1000,28,4031478,1030,95.285
C,8,3937463,vowelstep3_catch.wav,None,1000,28,4033478,326,97.285
C,8,3937463,sinestep5.wav,1,373,28,4035478,336,99.285
C,8,3937463,sinestep5.wav,None,1000,28,4037478,929,101.285
C,8,3937463,vowelstep3.wav,None,1000,28,4039479,315,103.285
C,8,3937463,vowelstep5.wav,None,1000,28,4041479,314,105.285
C,8,3937463,sinestep1.wav,None,1000,28,4043479,325,107.285
C,8,3937463,sinestep3.wav,None,1000,28,4045479,325,109.285
C,8,3937463,vowelstep5.wav,None,1000,28,4047479,324,111.285
C,8,3937463,vowelstep7.wav,None,1000,28,4049479,324,113.285
C,8,3937463,vowelstep1.wav,None,1000,28,4051479,314,115.285
C,8,3937463,sinestep7.wav,None,1000,28,4053478,313,117.285
C,8,3937463,sinestep3.wav,None,1000,28,4055478,314,119.285
C,8,3937463,vowelstep1.wav,None,1000,28,4057479,313,121.285
C,8,3937463,vowelstep1.wav,None,1000,28,4059479,323,123.285
C,8,3937463,sinestep3.wav,None,1000,28,4061479,323,125.285
C,8,3937463,silence.wav,None,1000,28,4063479,334,127.285
C,8,3937463,silence.wav,None,1000,28,4065479,333,129.285
C,8,3937463,vowelstep5_catch.wav,None,1000,28,4067479,334,131.285
C,8,3937463,vowelstep5.wav,None,1000,28,4069479,314,133.285
C,8,3937463,silence.wav,None,1000,28,4071479,323,135.285
C,8,3937463,sinestep1.wav,None,1000,28,4073480,322,137.285
C,8,3937463,vowelstep7.wav,None,1000,28,4075480,322,139.285
C,8,3937463,sinestep7.wav,None,1000,28,4077479,321,141.285
C,8,3937463,silence.wav,None,1000,28,4079479,333,143.285
C,8,3937463,silence.wav,None,1000,28,4081479,332,145.285
C,8,3937463,sinestep7.wav,None,1000,28,4083479,332,147.285
C,8,3937463,vowelstep1.wav,None,1000,28,4085479,312,149.285
C,8,3937463,vowelstep5.wav,None,1000,28,4087479,322,151.285
C,8,3937463,vowelstep5.wav,None,1000,28,4089479,322,153.285
C,8,3937463,vowelstep7.wav,None,1000,28,4091480,322,155.285
C,8,3937463,sinestep7.wav,1,702,28,4093480,331,157.285
C,8,3937463,vowelstep1.wav,None,1000,28,4095480,628,159.285
C,8,3937463,vowelstep3.wav,None,1000,28,4097480,331,161.285
C,8,3937463,sinestep5.wav,None,1000,28,4099480,341,163.285
C,8,3937463,sinestep7.wav,None,1000,28,4101479,321,165.285
C,8,3937463,sinestep1.wav,None,1000,28,4103479,319,167.285
C,8,3937463,sinestep7.wav,None,1000,28,4105479,320,169.285
C,8,3937463,sinestep3.wav,None,1000,28,4107479,331,171.285
C,8,3937463,silence.wav,None,1000,28,4109480,329,173.285
C,8,3937463,vowelstep7.wav,None,1000,28,4111480,330,175.285
C,8,3937463,sinestep7.wav,None,1000,28,4113480,340,177.285
C,8,3937463,sinestep5.wav,None,1000,28,4115480,319,179.285
C,8,3937463,vowelstep7.wav,None,1000,28,4117480,320,181.285
C,8,3937463,vowelstep5.wav,None,1000,28,4119480,319,183.285
C,8,3937463,vowelstep3.wav,None,1000,28,4121480,330,185.285
C,8,3937463,vowelstep7_catch.wav,None,1000,28,4123480,329,187.285
C,8,3937463,vowelstep3.wav,None,1000,28,4125480,329,189.285
C,8,3937463,vowelstep5.wav,None,1000,28,4127480,328,191.285
C,8,3937463,vowelstep7.wav,None,1000,28,4129480,319,193.285
C,8,3937463,vowelstep7_catch.wav,None,1000,28,4131480,319,195.285
C,8,3937463,vowelstep5_catch.wav,None,1000,28,4133480,319,197.285
C,8,3937463,sinestep5.wav,None,1000,28,4135480,328,199.285
C,8,3937463,sinestep3.wav,None,1000,28,4137480,328,201.285
C,8,3937463,vowelstep3_catch.wav,None,1000,28,4139480,329,203.285
C,8,3937463,vowelstep1_catch.wav,None,1000,28,4141480,338,205.285
C,8,3937463,vowelstep5.wav,None,1000,28,4143481,308,207.285
C,8,3937463,vowelstep1.wav,None,1000,28,4145481,317,209.285
C,8,3937463,sinestep1_catch.wav,1,380,28,4147481,316,211.285
C,8,3937463,sinestep3_catch.wav,1,170,28,4149480,936,213.285
C,8,3937463,sinestep1.wav,None,1000,28,4151480,1156,215.285
C,8,3937463,vowelstep3.wav,None,1000,28,4153480,327,217.285
C,8,3937463,sinestep3.wav,None,1000,28,4155480,335,219.285
C,8,3937463,vowelstep5.wav,None,1000,28,4157480,307,221.285
C,8,3937463,sinestep7.wav,None,1000,28,4159480,317,223.285
C,8,3937463,sinestep1.wav,None,1000,28,4161481,317,225.285
C,8,3937463,sinestep5_catch.wav,1,486,28,4163481,316,227.285
C,8,3937463,vowelstep7.wav,None,1000,28,4165481,837,229.285
C,8,3937463,vowelstep3.wav,None,1000,28,4167481,325,231.285
C,8,3937463,silence.wav,None,1000,28,4169481,335,233.285
C,8,3937463,vowelstep1.wav,None,1000,28,4171481,316,235.285
C,8,3937463,sinestep5.wav,None,1000,28,4173480,315,237.285
C,8,3937463,sinestep1.wav,None,1000,28,4175480,315,239.285
C,8,3937463,vowelstep7.wav,None,1000,28,4177480,325,241.285
C,8,3937463,sinestep3.wav,None,1000,28,4179481,325,243.285
C,8,3937463,sinestep3.wav,None,1000,28,4181481,325,245.285
C,8,3937463,sinestep5.wav,None,1000,28,4183481,334,247.285
C,8,3937463,vowelstep3.wav,None,1000,28,4185481,334,249.285
C,8,3937463,sinestep3.wav,None,1000,28,4187481,314,251.285
C,8,3937463,silence.wav,None,1000,28,4189481,314,253.285
C,8,3937463,sinestep3.wav,None,1000,28,4191481,314,255.285
C,8,3937463,vowelstep1.wav,None,1000,28,4193481,323,257.285
C,8,3937463,silence.wav,None,1000,28,4195481,324,259.285
C,8,3937463,vowelstep1.wav,None,1000,28,4197482,333,261.285
C,8,3937463,silence.wav,None,1000,28,4199481,332,263.285
C,8,3937463,sinestep7.wav,None,1000,28,4201481,313,265.285
C,8,3937463,sinestep3.wav,None,1000,28,4203481,313,267.285
C,8,3937463,vowelstep1.wav,None,1000,28,4205481,323,269.285
C,8,3937463,sinestep7.wav,None,1000,28,4207481,323,271.285
C,8,3937463,sinestep7_catch.wav,1,214,28,4209481,322,273.285
C,8,3937463,vowelstep5.wav,None,1000,28,4211481,1107,275.285
C,8,3937463,silence.wav,None,1000,28,4213482,312,277.285
C,8,3937463,silence.wav,None,1000,28,4215482,311,279.285
C,8,3937463,sinestep3.wav,None,1000,28,4217482,312,281.285
C,8,3937463,vowelstep7.wav,None,1000,28,4219482,312,283.285
C,8,3937463,sinestep5.wav,None,1000,28,4221482,322,285.285
C,8,3937463,sinestep5.wav,None,1000,28,4223481,322,287.285
C,8,3937463,vowelstep3.wav,None,1000,28,4225481,321,289.285
C,8,3937463,sinestep3.wav,None,1000,28,4227481,302,291.285
C,8,3937463,silence.wav,None,1000,28,4229481,312,293.285
C,8,3937463,silence.wav,None,1000,28,4231482,312,295.285
C,8,3937463,vowelstep7.wav,None,1000,28,4233482,311,297.285
C,8,3937463,silence.wav,None,1000,28,4235482,322,299.285
C,8,3937463,vowelstep5.wav,None,1000,28,4237482,321,301.285
C,8,3937463,sinestep5.wav,None,1000,28,4239482,321,303.285
C,8,3937463,silence.wav,None,1000,28,4241482,331,305.285
C,8,3937463,silence.wav,None,1000,28,4243482,311,307.285
C,8,3937463,silence.wav,None,1000,28,4245482,310,309.285
C,8,3937463,sinestep7_catch.wav,1,316,28,4247481,310,311.285
C,8,3937463,sinestep7.wav,None,1000,28,4249482,994,313.285
C,8,3937463,sinestep5_catch.wav,1,80,28,4251466,320,315.285
C,8,3937463,sinestep5.wav,None,1000,28,4253482,1269,317.285
C,8,3937463,sinestep3_catch.wav,1,34,28,4255482,330,319.285
D,9,4310451,sinestep5.wav,None,1000,28,4310466,0,1.285
D,9,4310451,vowelstep1_catch.wav,None,1000,28,4312466,315,3.285
D,9,4310451,sinestep7.wav,None,1000,28,4314466,315,5.285
D,9,4310451,vowelstep3.wav,None,1000,28,4316466,312,7.285
D,9,4310451,vowelstep3_catch.wav,None,1000,28,4318467,314,9.285
D,9,4310451,vowelstep5_catch.wav,None,1000,28,4320467,323,11.285
D,9,4310451,sinestep7.wav,None,1000,28,4322467,323,13.285
D,9,4310451,silence.wav,None,1000,28,4324467,333,15.285
D,9,4310451,vowelstep7_catch.wav,None,1000,28,4326467,303,17.285
D,9,4310451,vowelstep7.wav,None,1000,28,4328466,314,19.285
D,9,4310451,vowelstep3.wav,None,1000,28,4330466,313,21.285
D,9,4310451,vowelstep7_catch.wav,None,1000,28,4332466,323,23.285
D,9,4310451,vowelstep5.wav,None,1000,28,4334466,323,25.285
D,9,4310451,sinestep7.wav,None,1000,28,4336467,323,27.285
D,9,4310451,silence.wav,None,1000,28,4338467,323,29.285
D,9,4310451,vowelstep1.wav,None,1000,28,4340467,309,31.285
D,9,4310451,vowelstep1.wav,None,1000,28,4342467,310,33.285
D,9,4310451,vowelstep7.wav,None,1000,28,4344467,312,35.285
D,9,4310451,vowelstep3.wav,None,1000,28,4346467,312,37.285
D,9,4310451,sinestep3.wav,None,1000,28,4348467,322,39.285
D,9,4310451,sinestep1.wav,None,1000,28,4350467,322,41.285
D,9,4310451,vowelstep1.wav,None,1000,28,4352466,322,43.285
D,9,4310451,vowelstep1.wav,None,1000,28,4354467,332,45.285
D,9,4310451,sinestep7.wav,None,1000,28,4356467,311,47.285
D,9,4310451,sinestep3.wav,None,1000,28,4358467,309,49.285
D,9,4310451,vowelstep5_catch.wav,None,1000,28,4360467,311,51.285
D,9,4310451,sinestep7.wav,None,1000,28,4362467,321,53.285
D,9,4310451,vowelstep5.wav,None,1000,28,4364467,322,55.285
D,9,4310451,sinestep3.wav,None,1000,28,4366467,321,57.285
D,9,4310451,sinestep7.wav,None,1000,28,4368467,301,59.285
D,9,4310451,vowelstep3.wav,None,1000,28,4370468,312,61.285
D,9,4310451,vowelstep3.wav,None,1000,28,4372468,310,63.285
D,9,4310451,vowelstep3_catch.wav,None,1000,28,4374468,311,65.285
D,9,4310451,silence.wav,None,1000,28,4376467,321,67.285
D,9,4310451,vowelstep7.wav,None,1000,28,4378467,319,69.285
D,9,4310451,silence.wav,None,1000,28,4380467,320,71.285
D,9,4310451,sinestep1.wav,None,1000,28,4382467,320,73.285
D,9,4310451,vowelstep5.wav,None,1000,28,4384467,311,75.285
D,9,4310451,vowelstep1.wav,None,1000,28,4386467,331,77.285
D,9,4310451,sinestep7.wav,None,1000,28,4388468,309,79.285
D,9,4310451,vowelstep1.wav,None,1000,28,4390468,319,81.285
D,9,4310451,sinestep7.wav,None,1000,28,4392468,319,83.285
D,9,4310451,vowelstep7.wav,None,1000,28,4394468,319,85.285
D,9,4310451,vowelstep5.wav,None,1000,28,4396468,329,87.285
D,9,4310451,vowelstep1.wav,None,1000,28,4398468,307,89.285
D,9,4310451,sinestep5.wav,None,1000,28,4400467,329,91.285
D,9,4310451,sinestep5.wav,None,1000,28,4402467,339,93.285
D,9,4310451,vowelstep3.wav,None,1000,28,4404467,319,95.285
D,9,4310451,silence.wav,None,1000,28,4406468,318,97.285
D,9,4310451,sinestep1.wav,None,1000,28,4408468,318,99.285
D,9,4310451,sinestep1.wav,None,1000,28,4410468,318,101.285
D,9,4310451,sinestep3.wav,None,1000,28,4412468,328,103.285
D,9,4310451,vowelstep1.wav,None,1000,28,4414468,328,105.285
D,9,4310451,sinestep7.wav,None,1000,28,4416468,338,107.285
D,9,4310451,vowelstep3.wav,None,1000,28,4418468,306,109.285
D,9,4310451,silence.wav,None,1000,28,4420468,318,111.285
D,9,4310451,vowelstep5.wav,None,1000,28,4422468,318,113.285
D,9,4310451,vowelstep1.wav,None,1000,28,4424468,327,115.285
D,9,4310451,vowelstep1_catch.wav,None,1000,28,4426468,326,117.285
D,9,4310451,vowelstep7.wav,None,1000,28,4428468,327,119.285
D,9,4310451,sinestep5.wav,None,1000,28,4430468,337,121.285
D,9,4310451,vowelstep7.wav,None,1000,28,4432468,307,123.285
D,9,4310451,sinestep1.wav,None,1000,28,4434468,317,125.285
D,9,4310451,sinestep1.wav,None,1000,28,4436468,313,127.285
D,9,4310451,vowelstep3.wav,None,1000,28,4438468,327,129.285
D,9,4310451,sinestep1.wav,None,1000,28,4440469,328,131.285
D,9,4310451,silence.wav,None,1000,28,4442469,326,133.285
D,9,4310451,sinestep3.wav,None,1000,28,4444469,336,135.285
D,9,4310451,silence.wav,None,1000,28,4446469,317,137.285
D,9,4310451,vowelstep3.wav,None,1000,28,4448468,316,139.285
D,9,4310451,vowelstep5.wav,None,1000,28,4450468,316,141.285
D,9,4310451,silence.wav,None,1000,28,4452468,317,143.285
D,9,4310451,sinestep5.wav,None,1000,28,4454468,327,145.285
D,9,4310451,sinestep5.wav,None,1000,28,4456468,327,147.285
D,9,4310451,sinestep1.wav,None,1000,28,4458469,306,149.285
D,9,4310451,vowelstep5.wav,None,1000,28,4460469,306,151.285
D,9,4310451,vowelstep5.wav,None,1000,28,4462469,316,153.285
D,9,4310451,sinestep1_catch.wav,1,366,28,4464469,315,155.285
D,9,4310451,sinestep5.wav,None,1000,28,4466469,958,157.285
D,9,4310451,vowelstep3.wav,None,1000,28,4468469,325,159.285
D,9,4310451,vowelstep7.wav,None,1000,28,4470469,325,161.285
D,9,4310451,vowelstep3.wav,None,1000,28,4472468,326,163.285
D,9,4310451,sinestep3.wav,None,1000,28,4474468,314,165.285
D,9,4310451,sinestep1.wav,None,1000,28,4476469,316,167.285
D,9,4310451,silence.wav,None,1000,28,4478469,314,169.285
D,9,4310451,sinestep1.wav,None,1000,28,4480469,314,171.285
D,9,4310451,vowelstep1.wav,None,1000,28,4482469,325,173.285
D,9,4310451,vowelstep3.wav,None,1000,28,4484469,323,175.285
D,9,4310451,silence.wav,None,1000,28,4486469,324,177.285
D,9,4310451,sinestep7.wav,None,1000,28,4488469,334,179.285
D,9,4310451,silence.wav,None,1000,28,4490469,314,181.285
D,9,4310451,vowelstep7.wav,None,1000,28,4492469,315,183.285
D,9,4310451,sinestep3.wav,None,1000,28,4494470,323,185.285
D,9,4310451,vowelstep1.wav,None,1000,28,4496469,323,187.285
D,9,4310451,sinestep7.wav,None,1000,28,4498469,324,189.285
D,9,4310451,silence.wav,None,1000,28,4500469,323,191.285
D,9,4310451,sinestep1.wav,None,1000,28,4502469,304,193.285
D,9,4310451,sinestep3.wav,None,1000,28,4504469,313,195.285
D,9,4310451,sinestep5.wav,None,1000,28,4506469,313,197.285
D,9,4310451,vowelstep3.wav,None,1000,28,4508469,313,199.285
D,9,4310451,sinestep5.wav,None,1000,28,4510470,323,201.285
D,9,4310451,sinestep5.wav,None,1000,28,4512470,323,203.285
D,9,4310451,sinestep3.wav,None,1000,28,4514470,323,205.285
D,9,4310451,sinestep3.wav,None,1000,28,4516470,332,207.285
D,9,4310451,sinestep5.wav,None,1000,28,4518470,314,209.285
D,9,4310451,sinestep3_catch.wav,1,606,28,4520469,312,211.285
D,9,4310451,vowelstep7.wav,None,1000,28,4522469,705,213.285
D,9,4310451,sinestep1.wav,None,1000,28,4524469,322,215.285
D,9,4310451,sinestep7.wav,None,1000,28,4526469,322,217.285
D,9,4310451,vowelstep1.wav,None,1000,28,4528453,323,219.285
D,9,4310451,sinestep5.wav,None,1000,28,4530470,332,221.285
D,9,4310451,silence.wav,None,1000,28,4532470,311,223.285
D,9,4310451,sinestep5_catch.wav,1,330,28,4534470,312,225.285
D,9,4310451,sinestep5.wav,None,1000,28,4536470,980,227.285
D,9,4310451,silence.wav,None,1000,28,4538470,322,229.285
D,9,4310451,vowelstep7.wav,None,1000,28,4540470,321,231.285
D,9,4310451,sinestep3.wav,None,1000,28,4542470,321,233.285
D,9,4310451,vowelstep5.wav,None,1000,28,4544469,331,235.285
D,9,4310451,vowelstep7.wav,None,1000,28,4546454,312,237.285
D,9,4310451,vowelstep5.wav,None,1000,28,4548470,331,239.285
D,9,4310451,silence.wav,None,1000,28,4550470,310,241.285
D,9,4310451,silence.wav,None,1000,28,4552470,320,243.285
D,9,4310451,silence.wav,None,1000,28,4554470,320,245.285
D,9,4310451,sinestep7.wav,None,1000,28,4556470,320,247.285
D,9,4310451,sinestep5.wav,None,1000,28,4558470,331,249.285
D,9,4310451,sinestep7_catch.wav,1,381,28,4560470,311,251.285
D,9,4310451,vowelstep1.wav,None,1000,28,4562470,928,253.285
D,9,4310451,vowelstep1.wav,None,1000,28,4564454,309,255.285
D,9,4310451,vowelstep3.wav,None,1000,28,4566471,339,257.285
D,9,4310451,silence.wav,None,1000,28,4568471,318,259.285
D,9,4310451,sinestep5.wav,None,1000,28,4570470,319,261.285
D,9,4310451,vowelstep7.wav,None,1000,28,4572470,318,263.285
D,9,4310451,vowelstep3.wav,None,1000,28,4574470,309,265.285
D,9,4310451,vowelstep7.wav,None,1000,28,4576454,309,267.285
D,9,4310451,vowelstep5.wav,None,1000,28,4578470,339,269.285
D,9,4310451,sinestep1.wav,None,1000,28,4580454,309,271.285
D,9,4310451,sinestep7.wav,None,1000,28,4582454,337,273.285
D,9,4310451,sinestep3.wav,None,1000,28,4584454,348,275.285
D,9,4310451,silence.wav,None,1000,28,4586471,318,277.285
D,9,4310451,sinestep7.wav,None,1000,28,4588471,328,279.285
D,9,4310451,vowelstep5.wav,None,1000,28,4590471,309,281.285
D,9,4310451,sinestep1.wav,None,1000,28,4592454,308,283.285
D,9,4310451,vowelstep1.wav,None,1000,28,4594454,339,285.285
D,9,4310451,sinestep1.wav,None,1000,28,4596470,338,287.285
D,9,4310451,vowelstep5.wav,None,1000,28,4598455,318,289.285
D,9,4310451,silence.wav,None,1000,28,4600455,347,291.285
D,9,4310451,sinestep3.wav,None,1000,28,4602454,327,293.285
D,9,4310451,vowelstep5.wav,None,1000,28,4604471,327,295.285
D,9,4310451,silence.wav,None,1000,28,4606471,307,297.285
D,9,4310451,sinestep3.wav,None,1000,28,4608454,307,299.285
D,9,4310451,vowelstep7.wav,None,1000,28,4610454,337,301.285
D,9,4310451,sinestep7_catch.wav,1,420,28,4612454,335,303.285
D,9,4310451,sinestep5_catch.wav,1,308,28,4614471,897,305.285
D,9,4310451,sinestep3.wav,None,1000,28,4616455,1019,307.285
D,9,4310451,vowelstep5.wav,None,1000,28,4618471,327,309.285
D,9,4310451,silence.wav,None,1000,28,4620455,336,311.285
D,9,4310451,sinestep3_catch.wav,1,282,28,4622471,336,313.285
D,9,4310451,silence.wav,None,1000,28,4624455,1033,315.285
D,9,4310451,vowelstep7.wav,None,1000,28,4626454,336,317.285
D,9,4310451,silence.wav,None,1000,28,4628454,346,319.285