block,count_main_sequence,first_trial_timestamp,fname,response_catch_response,response_time_catch_response,subject_nr,time_stimulus,time_to_pad,timing
P,NA,226800,vowelstep1_catch.wav,1,736,34,226819,0,
P,NA,226800,sinestep7_catch.wav,None,1000,34,228819,697,
P,NA,226800,vowelstep5_catch.wav,None,1000,34,230819,448,
P,NA,226800,sinestep7.wav,None,1000,34,232819,418,
P,NA,226800,sinestep7.wav,None,1000,34,234819,429,
P,NA,226800,sinestep3.wav,None,1000,34,236819,429,
P,NA,226800,sinestep1.wav,None,1000,34,238819,439,
P,NA,226800,vowelstep7.wav,None,1000,34,240819,439,
P,NA,226800,vowelstep3.wav,None,1000,34,242803,438,
P,NA,226800,silence.wav,None,1000,34,244803,438,
P,NA,226800,sinestep1.wav,None,1000,34,246803,448,
P,NA,226800,vowelstep1.wav,None,1000,34,248803,449,
P,NA,226800,sinestep5.wav,None,1000,34,250803,448,
P,NA,226800,sinestep1.wav,None,1000,34,252819,458,
P,NA,226800,sinestep1.wav,None,1000,34,254819,434,
P,NA,226800,vowelstep1.wav,None,1000,34,256819,434,
P,NA,226800,silence.wav,1,755,34,258819,419,
P,NA,226800,silence.wav,None,1000,34,260803,671,
P,NA,226800,silence.wav,1,362,34,262803,448,
P,NA,226800,sinestep3_catch.wav,1,378,34,264803,1084,
P,NA,226800,vowelstep7.wav,None,1000,34,266803,1079,
P,NA,226800,silence.wav,None,1000,34,268803,457,
P,NA,226800,vowelstep7.wav,None,1000,34,270803,466,
P,NA,226800,vowelstep3.wav,None,1000,34,272819,435,
P,NA,226800,silence.wav,None,1000,34,274819,425,
P,NA,226800,vowelstep1.wav,None,1000,34,276804,425,
P,NA,226800,sinestep3.wav,None,1000,34,278804,454,
P,NA,226800,vowelstep1.wav,None,1000,34,280803,454,
P,NA,226800,silence.wav,None,1000,34,282803,454,
P,NA,226800,sinestep7.wav,None,1000,34,284803,460,
P,NA,226800,sinestep5_catch.wav,1,198,34,286803,444,
P,NA,226800,silence.wav,None,1000,34,288803,1245,
P,NA,226800,sinestep7.wav,None,1000,34,290803,444,
P,NA,226800,sinestep5.wav,None,1000,34,292803,455,
P,NA,226800,sinestep3.wav,None,1000,34,294804,454,
P,NA,226800,sinestep1_catch.wav,1,254,34,296804,453,
P,NA,226800,vowelstep3_catch.wav,1,324,34,298804,1199,
P,NA,226800,vowelstep5_catch.wav,1,267,34,300804,1139,
P,NA,226800,vowelstep7.wav,None,1000,34,302803,1176,
P,NA,226800,silence.wav,None,1000,34,304803,443,
P,NA,226800,vowelstep7_catch.wav,1,209,34,306803,443,
P,NA,226800,vowelstep3.wav,None,1000,34,308803,1243,
P,NA,226800,silence.wav,None,1000,34,310803,453,
P,NA,226800,sinestep7_catch.wav,1,201,34,312804,454,
P,NA,226800,sinestep7.wav,None,1000,34,314804,1232,
P,NA,226800,vowelstep5.wav,None,1000,34,316804,432,
P,NA,226800,vowelstep3.wav,None,1000,34,318804,443,
P,NA,226800,sinestep5.wav,None,1000,34,320804,442,
P,NA,226800,sinestep5_catch.wav,1,132,34,322804,454,
P,NA,226800,sinestep3.wav,None,1000,34,324804,1320,
P,NA,226800,silence.wav,None,1000,34,326803,452,
P,NA,226800,vowelstep7.wav,None,1000,34,328803,453,
P,NA,226800,sinestep3_catch.wav,1,216,34,330804,442,
P,NA,226800,vowelstep5.wav,None,1000,34,332804,1225,
P,NA,226800,silence.wav,None,1000,34,334804,442,
P,NA,226800,sinestep1.wav,None,1000,34,336804,451,
P,NA,226800,vowelstep1.wav,None,1000,34,338804,451,
P,NA,226800,silence.wav,None,1000,34,340804,451,
P,NA,226800,silence.wav,None,1000,34,342804,431,
P,NA,226800,silence.wav,None,1000,34,344804,441,
P,NA,226800,sinestep1_catch.wav,1,99,34,346805,441,
P,NA,226800,sinestep1.wav,None,1000,34,348805,1340,
P,NA,226800,silence.wav,None,1000,34,350804,450,
P,NA,226800,vowelstep1_catch.wav,1,23,34,352804,450,
P,NA,226800,vowelstep5.wav,None,1000,34,354804,1427,
P,NA,226800,sinestep5.wav,None,1000,34,356804,450,
P,NA,226800,vowelstep3.wav,None,1000,34,358804,440,
P,NA,226800,silence.wav,None,1000,34,360804,440,
P,NA,226800,silence.wav,None,1000,34,362804,440,
P,NA,226800,sinestep7.wav,None,1000,34,364805,450,
P,NA,226800,vowelstep5.wav,None,1000,34,366805,450,
P,NA,226800,silence.wav,None,1000,34,368805,449,
P,NA,226800,vowelstep3_catch.wav,1,358,34,370805,459,
P,NA,226800,silence.wav,None,1000,34,372805,1081,
P,NA,226800,vowelstep5.wav,None,1000,34,374804,439,
P,NA,226800,vowelstep5_catch.wav,1,492,34,376804,439,
P,NA,226800,vowelstep7_catch.wav,1,347,34,378804,956,
P,NA,226800,sinestep3.wav,None,1000,34,380804,1101,
P,NA,226800,vowelstep5.wav,None,1000,34,382805,449,
P,NA,226800,vowelstep3.wav,None,1000,34,384805,448,
P,NA,226800,silence.wav,None,1000,34,386805,429,
P,NA,226800,sinestep3.wav,None,1000,34,388805,439,
P,NA,226800,silence.wav,None,1000,34,390805,438,
P,NA,226800,sinestep7_catch.wav,1,147,34,392805,448,
P,NA,226800,sinestep5_catch.wav,1,383,34,394805,1300,
P,NA,226800,sinestep5.wav,None,1000,34,396804,1064,
P,NA,226800,sinestep5.wav,None,1000,34,398804,449,
P,NA,226800,vowelstep7.wav,None,1000,34,400805,458,
P,NA,226800,sinestep3_catch.wav,1,320,34,402805,437,
P,NA,226800,vowelstep1.wav,None,1000,34,404805,1137,
F,0,808566,sinestep1.wav,None,1000,34,808578,0,1.285
F,0,808566,vowelstep5.wav,None,1000,34,810577,339,3.285
F,0,808566,vowelstep3.wav,None,1000,34,812577,355,5.285
F,0,808566,sinestep5.wav,None,1000,34,814577,334,7.285
F,0,808566,vowelstep7.wav,None,1000,34,816577,335,9.285
F,0,808566,silence.wav,None,1000,34,818577,165,11.285
F,0,808566,vowelstep5.wav,None,1000,34,820578,335,13.285
F,0,808566,sinestep3.wav,None,1000,34,822578,344,15.285
F,0,808566,sinestep3.wav,None,1000,34,824578,343,17.285
F,0,808566,silence.wav,None,1000,34,826578,344,19.285
F,0,808566,vowelstep7.wav,None,1000,34,828578,334,21.285
F,0,808566,vowelstep7.wav,None,1000,34,830578,331,23.285
F,0,808566,vowelstep1_catch.wav,1,187,34,832577,332,25.285
F,0,808566,vowelstep3_catch.wav,1,252,34,834577,1146,27.285
F,0,808566,vowelstep1.wav,None,1000,34,836578,1091,29.285
F,0,808566,sinestep5.wav,None,1000,34,838578,345,31.285
F,0,808566,sinestep5.wav,None,1000,34,840578,353,33.285
F,0,808566,vowelstep7.wav,None,1000,34,842578,322,35.285
F,0,808566,sinestep3.wav,None,1000,34,844578,334,37.285
F,0,808566,sinestep7.wav,None,1000,34,846578,333,39.285
F,0,808566,vowelstep5_catch.wav,1,227,34,848578,343,41.285
F,0,808566,sinestep1.wav,None,1000,34,850578,1115,43.285
F,0,808566,vowelstep7_catch.wav,1,556,34,852578,343,45.285
F,0,808566,vowelstep3.wav,None,1000,34,854579,796,47.285
F,0,808566,sinestep1.wav,None,1000,34,856578,353,49.285
F,0,808566,sinestep7.wav,None,1000,34,858578,332,51.285
F,0,808566,silence.wav,None,1000,34,860578,332,53.285
F,0,808566,sinestep7.wav,None,1000,34,862578,332,55.285
F,0,808566,vowelstep1.wav,None,1000,34,864578,340,57.285
F,0,808566,vowelstep3.wav,None,1000,34,866578,342,59.285
F,0,808566,vowelstep7_catch.wav,1,286,34,868578,354,61.285
F,0,808566,sinestep5.wav,None,1000,34,870578,1066,63.285
F,0,808566,sinestep3.wav,None,1000,34,872579,332,65.285
F,0,808566,vowelstep3.wav,None,1000,34,874579,331,67.285
F,0,808566,silence.wav,None,1000,34,876579,331,69.285
F,0,808566,vowelstep1.wav,None,1000,34,878579,342,71.285
F,0,808566,vowelstep1.wav,None,1000,34,880578,341,73.285
F,0,808566,vowelstep5_catch.wav,1,268,34,882578,341,75.285
F,0,808566,silence.wav,None,1000,34,884578,1052,77.285
F,0,808566,vowelstep3.wav,None,1000,34,886578,331,79.285
F,0,808566,vowelstep5.wav,None,1000,34,888578,332,81.285
F,0,808566,vowelstep3_catch.wav,1,275,34,890579,329,83.285
F,0,808566,vowelstep3.wav,None,1000,34,892579,1064,85.285
F,0,808566,sinestep7.wav,None,1000,34,894579,339,87.285
F,0,808566,vowelstep1.wav,None,1000,34,896579,340,89.285
F,0,808566,sinestep1.wav,None,1000,34,898579,350,91.285
F,0,808566,vowelstep1_catch.wav,1,742,34,900579,330,93.285
F,0,808566,vowelstep5.wav,None,1000,34,902578,587,95.285
F,0,808566,sinestep7.wav,None,1000,34,904578,330,97.285
F,0,808566,vowelstep7.wav,None,1000,34,906579,338,99.285
F,0,808566,vowelstep3.wav,None,1000,34,908579,338,101.285
F,0,808566,sinestep3.wav,None,1000,34,910579,339,103.285
F,0,808566,silence.wav,None,1000,34,912579,349,105.285
F,0,808566,sinestep1.wav,None,1000,34,914579,329,107.285
F,0,808566,sinestep1.wav,None,1000,34,916579,330,109.285
F,0,808566,silence.wav,None,1000,34,918579,330,111.285
F,0,808566,sinestep7.wav,None,1000,34,920579,338,113.285
F,0,808566,vowelstep3.wav,None,1000,34,922579,339,115.285
F,0,808566,sinestep3.wav,None,1000,34,924580,339,117.285
F,0,808566,vowelstep3.wav,None,1000,34,926579,347,119.285
F,0,808566,vowelstep7.wav,None,1000,34,928579,348,121.285
F,0,808566,vowelstep7.wav,None,1000,34,930579,347,123.285
F,0,808566,vowelstep5.wav,None,1000,34,932579,352,125.285
F,0,808566,sinestep1.wav,None,1000,34,934579,338,127.285
F,0,808566,silence.wav,None,1000,34,936579,337,129.285
F,0,808566,sinestep1.wav,None,1000,34,938579,337,131.285
F,0,808566,sinestep3.wav,None,1000,34,940579,347,133.285
F,0,808566,sinestep1_catch.wav,1,288,34,942580,347,135.285
F,0,808566,sinestep3.wav,None,1000,34,944580,1058,137.285
F,0,808566,sinestep3.wav,None,1000,34,946580,347,139.285
F,0,808566,silence.wav,None,1000,34,948579,337,141.285
F,0,808566,silence.wav,None,1000,34,950579,337,143.285
F,0,808566,sinestep7.wav,None,1000,34,952579,336,145.285
F,0,808566,sinestep5.wav,None,1000,34,954579,338,147.285
F,0,808566,vowelstep1.wav,None,1000,34,956579,346,149.285
F,0,808566,sinestep7.wav,None,1000,34,958580,346,151.285
F,0,808566,silence.wav,None,1000,34,960580,356,153.285
F,0,808566,sinestep3_catch.wav,1,302,34,962580,356,155.285
F,0,808566,vowelstep5.wav,None,1000,34,964580,1033,157.285
F,0,808566,sinestep3.wav,None,1000,34,966580,336,159.285
F,0,808566,vowelstep5.wav,None,1000,34,968580,335,161.285
F,0,808566,sinestep3.wav,None,1000,34,970580,346,163.285
F,0,808566,vowelstep3.wav,None,1000,34,972579,345,165.285
F,0,808566,vowelstep1.wav,None,1000,34,974579,345,167.285
F,0,808566,sinestep5.wav,None,1000,34,976580,325,169.285
F,0,808566,vowelstep5.wav,None,1000,34,978580,335,171.285
F,0,808566,vowelstep1.wav,None,1000,34,980580,334,173.285
F,0,808566,vowelstep1.wav,None,1000,34,982580,344,175.285
F,0,808566,sinestep7.wav,None,1000,34,984580,343,177.285
F,0,808566,vowelstep1.wav,None,1000,34,986580,344,179.285
F,0,808566,sinestep5.wav,None,1000,34,988580,344,181.285
F,0,808566,vowelstep7.wav,None,1000,34,990580,335,183.285
F,0,808566,sinestep1.wav,None,1000,34,992580,334,185.285
F,0,808566,vowelstep7.wav,None,1000,34,994580,335,187.285
F,0,808566,sinestep5.wav,None,1000,34,996580,335,189.285
F,0,808566,vowelstep5.wav,None,1000,34,998580,343,191.285
F,0,808566,silence.wav,None,1000,34,1000580,343,193.285
F,0,808566,sinestep7.wav,None,1000,34,1002580,343,195.285
F,0,808566,vowelstep5.wav,None,1000,34,1004580,323,197.285
F,0,808566,vowelstep7.wav,None,1000,34,1006580,334,199.285
F,0,808566,silence.wav,None,1000,34,1008580,333,201.285
F,0,808566,vowelstep1.wav,None,1000,34,1010580,334,203.285
F,0,808566,vowelstep7.wav,None,1000,34,1012581,342,205.285
F,0,808566,vowelstep7.wav,None,1000,34,1014581,343,207.285
F,0,808566,vowelstep3.wav,None,1000,34,1016581,344,209.285
F,0,808566,vowelstep3.wav,None,1000,34,1018580,323,211.285
F,0,808566,silence.wav,None,1000,34,1020580,332,213.285
F,0,808566,sinestep7.wav,None,1000,34,1022580,332,215.285
F,0,808566,sinestep1.wav,None,1000,34,1024580,332,217.285
F,0,808566,silence.wav,None,1000,34,1026580,343,219.285
F,0,808566,vowelstep1.wav,None,1000,34,1028581,343,221.285
F,0,808566,sinestep5_catch.wav,1,263,34,1030581,341,223.285
F,0,808566,sinestep1.wav,None,1000,34,1032581,1087,225.285
F,0,808566,silence.wav,None,1000,34,1034581,331,227.285
F,0,808566,sinestep7.wav,None,1000,34,1036581,331,229.285
F,0,808566,sinestep7.wav,None,1000,34,1038581,330,231.285
F,0,808566,silence.wav,None,1000,34,1040581,340,233.285
F,0,808566,vowelstep5.wav,None,1000,34,1042580,341,235.285
F,0,808566,sinestep7.wav,None,1000,34,1044580,341,237.285
F,0,808566,sinestep5.wav,None,1000,34,1046581,352,239.285
F,0,808566,sinestep5.wav,None,1000,34,1048581,319,241.285
F,0,808566,silence.wav,None,1000,34,1050581,330,243.285
F,0,808566,vowelstep3.wav,None,1000,34,1052581,331,245.285
F,0,808566,vowelstep3.wav,None,1000,34,1054581,339,247.285
F,0,808566,silence.wav,None,1000,34,1056581,340,249.285
F,0,808566,sinestep1.wav,None,1000,34,1058581,340,251.285
F,0,808566,sinestep1.wav,None,1000,34,1060581,339,253.285
F,0,808566,vowelstep5.wav,None,1000,34,1062581,330,255.285
F,0,808566,silence.wav,None,1000,34,1064581,331,257.285
F,0,808566,sinestep5.wav,None,1000,34,1066581,329,259.285
F,0,808566,sinestep5.wav,None,1000,34,1068581,328,261.285
F,0,808566,sinestep5.wav,None,1000,34,1070581,339,263.285
F,0,808566,sinestep7.wav,None,1000,34,1072581,338,265.285
F,0,808566,sinestep7_catch.wav,1,267,34,1074581,349,267.285
F,0,808566,sinestep7_catch.wav,1,240,34,1076581,1051,269.285
F,0,808566,sinestep1.wav,None,1000,34,1078581,1088,271.285
F,0,808566,vowelstep7.wav,None,1000,34,1080581,328,273.285
F,0,808566,sinestep3.wav,None,1000,34,1082582,338,275.285
F,0,808566,sinestep3.wav,None,1000,34,1084582,337,277.285
F,0,808566,silence.wav,None,1000,34,1086582,337,279.285
F,0,808566,sinestep5_catch.wav,1,353,34,1088581,348,281.285
F,0,808566,sinestep5.wav,None,1000,34,1090581,994,283.285
F,0,808566,silence.wav,None,1000,34,1092581,328,285.285
F,0,808566,vowelstep5.wav,None,1000,34,1094581,327,287.285
F,0,808566,silence.wav,None,1000,34,1096581,328,289.285
F,0,808566,sinestep1.wav,None,1000,34,1098582,338,291.285
F,0,808566,sinestep3.wav,None,1000,34,1100582,336,293.285
F,0,808566,vowelstep3.wav,None,1000,34,1102582,336,295.285
F,0,808566,silence.wav,None,1000,34,1104582,346,297.285
F,0,808566,sinestep5.wav,None,1000,34,1106582,326,299.285
F,0,808566,vowelstep5.wav,None,1000,34,1108582,326,301.285
F,0,808566,vowelstep5.wav,None,1000,34,1110582,325,303.285
F,0,808566,vowelstep1.wav,None,1000,34,1112581,336,305.285
F,0,808566,sinestep3.wav,None,1000,34,1114581,336,307.285
F,0,808566,silence.wav,None,1000,34,1116582,335,309.285
F,0,808566,sinestep3_catch.wav,1,349,34,1118582,316,311.285
F,0,808566,vowelstep1.wav,None,1000,34,1120582,976,313.285
F,0,808566,vowelstep7.wav,None,1000,34,1122582,325,315.285
F,0,808566,vowelstep7.wav,None,1000,34,1124582,325,317.285
F,0,808566,vowelstep1.wav,None,1000,34,1126582,336,319.285
C,1,1186630,sinestep1.wav,None,1000,34,1186633,0,1.285
C,1,1186630,vowelstep1.wav,None,1000,34,1188650,355,3.285
C,1,1186630,sinestep1.wav,None,1000,34,1190650,336,5.285
C,1,1186630,sinestep1.wav,None,1000,34,1192650,335,7.285
C,1,1186630,vowelstep1.wav,None,1000,34,1194650,341,9.285
C,1,1186630,sinestep1.wav,None,1000,34,1196633,326,11.285
C,1,1186630,sinestep7.wav,None,1000,34,1198633,345,13.285
C,1,1186630,vowelstep7.wav,None,1000,34,1200649,355,15.285
C,1,1186630,vowelstep3.wav,None,1000,34,1202649,335,17.285
C,1,1186630,vowelstep5.wav,None,1000,34,1204633,336,19.285
C,1,1186630,silence.wav,None,1000,34,1206650,354,21.285
C,1,1186630,sinestep3.wav,None,1000,34,1208650,344,23.285
C,1,1186630,vowelstep5.wav,None,1000,34,1210650,314,25.285
C,1,1186630,sinestep1.wav,None,1000,34,1212633,324,27.285
C,1,1186630,vowelstep1.wav,None,1000,34,1214633,344,29.285
C,1,1186630,vowelstep7.wav,None,1000,34,1216633,354,31.285
C,1,1186630,vowelstep3.wav,None,1000,34,1218650,354,33.285
C,1,1186630,sinestep1.wav,None,1000,34,1220649,334,35.285
C,1,1186630,sinestep5.wav,None,1000,34,1222634,333,37.285
C,1,1186630,silence.wav,None,1000,34,1224634,343,39.285
C,1,1186630,vowelstep7.wav,None,1000,34,1226650,343,41.285
C,1,1186630,vowelstep5.wav,None,1000,34,1228633,323,43.285
C,1,1186630,sinestep5.wav,None,1000,34,1230633,352,45.285
C,1,1186630,silence.wav,None,1000,34,1232633,354,47.285
C,1,1186630,sinestep5.wav,None,1000,34,1234633,354,49.285
C,1,1186630,sinestep1.wav,None,1000,34,1236650,343,51.285
C,1,1186630,silence.wav,None,1000,34,1238634,322,53.285
C,1,1186630,vowelstep1.wav,None,1000,34,1240634,343,55.285
C,1,1186630,vowelstep1.wav,None,1000,34,1242634,342,57.285
C,1,1186630,sinestep1.wav,None,1000,34,1244634,352,59.285
C,1,1186630,silence.wav,None,1000,34,1246634,352,61.285
C,1,1186630,vowelstep5.wav,None,1000,34,1248634,352,63.285
C,1,1186630,vowelstep3.wav,None,1000,34,1250633,362,65.285
C,1,1186630,vowelstep3.wav,None,1000,34,1252633,342,67.285
C,1,1186630,vowelstep7.wav,None,1000,34,1254650,342,69.285
C,1,1186630,silence.wav,None,1000,34,1256634,322,71.285
C,1,1186630,vowelstep3.wav,None,1000,34,1258634,350,73.285
C,1,1186630,silence.wav,None,1000,34,1260634,351,75.285
C,1,1186630,sinestep5.wav,None,1000,34,1262634,351,77.285
C,1,1186630,vowelstep7.wav,None,1000,34,1264634,332,79.285
C,1,1186630,vowelstep1_catch.wav,1,257,34,1266634,341,81.285
C,1,1186630,vowelstep3.wav,None,1000,34,1268634,1083,83.285
C,1,1186630,sinestep7.wav,None,1000,34,1270634,341,85.285
C,1,1186630,vowelstep3.wav,None,1000,34,1272634,351,87.285
C,1,1186630,sinestep1.wav,None,1000,34,1274634,351,89.285
C,1,1186630,sinestep7.wav,None,1000,34,1276634,350,91.285
C,1,1186630,sinestep7.wav,None,1000,34,1278634,360,93.285
C,1,1186630,sinestep3.wav,None,1000,34,1280634,339,95.285
C,1,1186630,vowelstep3_catch.wav,1,599,34,1282634,340,97.285
C,1,1186630,sinestep5.wav,None,1000,34,1284634,739,99.285
C,1,1186630,sinestep5.wav,None,1000,34,1286634,350,101.285
C,1,1186630,vowelstep3.wav,None,1000,34,1288634,350,103.285
C,1,1186630,vowelstep5.wav,None,1000,34,1290650,350,105.285
C,1,1186630,sinestep1.wav,None,1000,34,1292635,330,107.285
C,1,1186630,sinestep3.wav,None,1000,34,1294635,339,109.285
C,1,1186630,vowelstep5.wav,None,1000,34,1296635,338,111.285
C,1,1186630,vowelstep7.wav,None,1000,34,1298634,339,113.285
C,1,1186630,vowelstep1.wav,None,1000,34,1300634,349,115.285
C,1,1186630,sinestep7.wav,None,1000,34,1302634,348,117.285
C,1,1186630,sinestep3.wav,None,1000,34,1304634,349,119.285
C,1,1186630,vowelstep1.wav,None,1000,34,1306634,358,121.285
C,1,1186630,vowelstep1.wav,None,1000,34,1308635,338,123.285
C,1,1186630,sinestep3.wav,None,1000,34,1310635,338,125.285
C,1,1186630,silence.wav,None,1000,34,1312635,337,127.285
C,1,1186630,silence.wav,None,1000,34,1314635,347,129.285
C,1,1186630,vowelstep5_catch.wav,1,314,34,1316635,347,131.285
C,1,1186630,vowelstep5.wav,None,1000,34,1318635,1033,133.285
C,1,1186630,silence.wav,None,1000,34,1320634,357,135.285
C,1,1186630,sinestep1.wav,None,1000,34,1322634,337,137.285
C,1,1186630,vowelstep7.wav,None,1000,34,1324634,338,139.285
C,1,1186630,sinestep7.wav,None,1000,34,1326635,337,141.285
C,1,1186630,silence.wav,None,1000,34,1328635,346,143.285
C,1,1186630,silence.wav,None,1000,34,1330635,346,145.285
C,1,1186630,sinestep7.wav,None,1000,34,1332635,347,147.285
C,1,1186630,vowelstep1.wav,None,1000,34,1334635,356,149.285
C,1,1186630,vowelstep5.wav,None,1000,34,1336635,326,151.285
C,1,1186630,vowelstep5.wav,None,1000,34,1338635,335,153.285
C,1,1186630,vowelstep7.wav,None,1000,34,1340635,338,155.285
C,1,1186630,sinestep7.wav,None,1000,34,1342635,347,157.285
C,1,1186630,vowelstep1.wav,None,1000,34,1344635,347,159.285
C,1,1186630,vowelstep3.wav,None,1000,34,1346635,345,161.285
C,1,1186630,sinestep5.wav,None,1000,34,1348635,345,163.285
C,1,1186630,sinestep7.wav,None,1000,34,1350635,355,165.285
C,1,1186630,sinestep1.wav,None,1000,34,1352635,336,167.285
C,1,1186630,sinestep7.wav,None,1000,34,1354635,336,169.285
C,1,1186630,sinestep3.wav,None,1000,34,1356635,336,171.285
C,1,1186630,silence.wav,None,1000,34,1358635,345,173.285
C,1,1186630,vowelstep7.wav,None,1000,34,1360635,345,175.285
C,1,1186630,sinestep7.wav,None,1000,34,1362636,343,177.285
C,1,1186630,sinestep5.wav,None,1000,34,1364636,325,179.285
C,1,1186630,vowelstep7.wav,None,1000,34,1366635,335,181.285
C,1,1186630,vowelstep5.wav,None,1000,34,1368635,333,183.285
C,1,1186630,vowelstep3.wav,None,1000,34,1370635,344,185.285
C,1,1186630,vowelstep7_catch.wav,1,283,34,1372635,345,187.285
C,1,1186630,vowelstep3.wav,None,1000,34,1374635,1061,189.285
C,1,1186630,vowelstep5.wav,None,1000,34,1376635,345,191.285
C,1,1186630,vowelstep7.wav,None,1000,34,1378636,334,193.285
C,1,1186630,vowelstep7_catch.wav,1,712,34,1380636,335,195.285
C,1,1186630,vowelstep5_catch.wav,1,218,34,1382636,621,197.285
C,1,1186630,sinestep5.wav,None,1000,34,1384636,1116,199.285
C,1,1186630,sinestep3.wav,None,1000,34,1386636,344,201.285
C,1,1186630,vowelstep3_catch.wav,1,186,34,1388636,344,203.285
C,1,1186630,vowelstep1_catch.wav,1,204,34,1390635,1156,205.285
C,1,1186630,vowelstep5.wav,None,1000,34,1392635,1148,207.285
C,1,1186630,vowelstep1.wav,None,1000,34,1394635,353,209.285
C,1,1186630,sinestep1_catch.wav,1,235,34,1396636,353,211.285
C,1,1186630,sinestep3_catch.wav,1,286,34,1398636,1127,213.285
C,1,1186630,sinestep1.wav,None,1000,34,1400636,1056,215.285
C,1,1186630,vowelstep3.wav,None,1000,34,1402636,343,217.285
C,1,1186630,sinestep3.wav,None,1000,34,1404636,342,219.285
C,1,1186630,vowelstep5.wav,None,1000,34,1406636,353,221.285
C,1,1186630,sinestep7.wav,None,1000,34,1408636,332,223.285
C,1,1186630,sinestep1.wav,None,1000,34,1410636,332,225.285
C,1,1186630,sinestep5_catch.wav,1,364,34,1412635,362,227.285
C,1,1186630,vowelstep7.wav,None,1000,34,1414636,979,229.285
C,1,1186630,vowelstep3.wav,None,1000,34,1416636,341,231.285
C,1,1186630,silence.wav,None,1000,34,1418636,342,233.285
C,1,1186630,vowelstep1.wav,None,1000,34,1420636,341,235.285
C,1,1186630,sinestep5.wav,None,1000,34,1422636,351,237.285
C,1,1186630,sinestep1.wav,None,1000,34,1424636,346,239.285
C,1,1186630,vowelstep7.wav,None,1000,34,1426636,361,241.285
C,1,1186630,sinestep3.wav,None,1000,34,1428636,332,243.285
C,1,1186630,sinestep3.wav,None,1000,34,1430637,339,245.285
C,1,1186630,sinestep5.wav,None,1000,34,1432637,340,247.285
C,1,1186630,vowelstep3.wav,None,1000,34,1434637,350,249.285
C,1,1186630,sinestep3.wav,None,1000,34,1436637,350,251.285
C,1,1186630,silence.wav,None,1000,34,1438636,351,253.285
C,1,1186630,sinestep3.wav,None,1000,34,1440636,351,255.285
C,1,1186630,vowelstep1.wav,None,1000,34,1442636,331,257.285
C,1,1186630,silence.wav,None,1000,34,1444636,340,259.285
C,1,1186630,vowelstep1.wav,None,1000,34,1446636,340,261.285
C,1,1186630,silence.wav,None,1000,34,1448637,350,263.285
C,1,1186630,sinestep7.wav,None,1000,34,1450637,350,265.285
C,1,1186630,sinestep3.wav,None,1000,34,1452637,349,267.285
C,1,1186630,vowelstep1.wav,None,1000,34,1454637,359,269.285
C,1,1186630,sinestep7.wav,None,1000,34,1456637,329,271.285
C,1,1186630,sinestep7_catch.wav,1,292,34,1458637,339,273.285
C,1,1186630,vowelstep5.wav,None,1000,34,1460636,1046,275.285
C,1,1186630,silence.wav,None,1000,34,1462636,349,277.285
C,1,1186630,silence.wav,None,1000,34,1464636,349,279.285
C,1,1186630,sinestep3.wav,None,1000,34,1466637,349,281.285
C,1,1186630,vowelstep7.wav,None,1000,34,1468637,348,283.285
C,1,1186630,sinestep5.wav,None,1000,34,1470637,359,285.285
C,1,1186630,sinestep5.wav,None,1000,34,1472637,339,287.285
C,1,1186630,vowelstep3.wav,None,1000,34,1474637,338,289.285
C,1,1186630,sinestep3.wav,None,1000,34,1476637,348,291.285
C,1,1186630,silence.wav,None,1000,34,1478637,349,293.285
C,1,1186630,silence.wav,None,1000,34,1480637,348,295.285
C,1,1186630,vowelstep7.wav,None,1000,34,1482636,348,297.285
C,1,1186630,silence.wav,None,1000,34,1484637,327,299.285
C,1,1186630,vowelstep5.wav,None,1000,34,1486637,337,301.285
C,1,1186630,sinestep5.wav,None,1000,34,1488637,337,303.285
C,1,1186630,silence.wav,None,1000,34,1490637,337,305.285
C,1,1186630,silence.wav,None,1000,34,1492637,347,307.285
C,1,1186630,silence.wav,None,1000,34,1494637,347,309.285
C,1,1186630,sinestep7_catch.wav,1,316,34,1496637,346,311.285
C,1,1186630,sinestep7.wav,None,1000,34,1498637,1009,313.285
C,1,1186630,sinestep5_catch.wav,1,515,34,1500638,338,315.285
C,1,1186630,sinestep5.wav,None,1000,34,1502638,820,317.285
C,1,1186630,sinestep3_catch.wav,1,260,34,1504638,336,319.285
B,2,1561298,vowelstep5.wav,None,1000,34,1561305,0,1.285
B,2,1561298,silence.wav,None,1000,34,1563305,361,3.285
B,2,1561298,sinestep7.wav,None,1000,34,1565305,327,5.285
B,2,1561298,vowelstep1_catch.wav,1,290,34,1567305,341,7.285
B,2,1561298,vowelstep7.wav,None,1000,34,1569304,1051,9.285
B,2,1561298,vowelstep3.wav,None,1000,34,1571305,352,11.285
B,2,1561298,vowelstep7.wav,None,1000,34,1573305,350,13.285
B,2,1561298,vowelstep5.wav,None,1000,34,1575305,351,15.285
B,2,1561298,vowelstep7.wav,None,1000,34,1577305,349,17.285
B,2,1561298,vowelstep3.wav,None,1000,34,1579305,343,19.285
B,2,1561298,silence.wav,None,1000,34,1581305,341,21.285
B,2,1561298,silence.wav,None,1000,34,1583305,342,23.285
B,2,1561298,sinestep5.wav,None,1000,34,1585305,342,25.285
B,2,1561298,sinestep1.wav,None,1000,34,1587305,352,27.285
B,2,1561298,vowelstep7.wav,None,1000,34,1589306,333,29.285
B,2,1561298,sinestep5.wav,None,1000,34,1591305,332,31.285
B,2,1561298,vowelstep1.wav,None,1000,34,1593305,361,33.285
B,2,1561298,vowelstep7.wav,None,1000,34,1595305,342,35.285
B,2,1561298,vowelstep3.wav,None,1000,34,1597305,341,37.285
B,2,1561298,sinestep5.wav,None,1000,34,1599305,340,39.285
B,2,1561298,vowelstep1.wav,None,1000,34,1601305,351,41.285
B,2,1561298,sinestep3.wav,None,1000,34,1603305,351,43.285
B,2,1561298,vowelstep5.wav,None,1000,34,1605305,351,45.285
B,2,1561298,vowelstep7.wav,None,1000,34,1607306,360,47.285
B,2,1561298,vowelstep3.wav,None,1000,34,1609306,329,49.285
B,2,1561298,sinestep7.wav,None,1000,34,1611306,340,51.285
B,2,1561298,sinestep3.wav,None,1000,34,1613306,338,53.285
B,2,1561298,sinestep1.wav,None,1000,34,1615305,351,55.285
B,2,1561298,sinestep1.wav,None,1000,34,1617305,350,57.285
B,2,1561298,sinestep5.wav,None,1000,34,1619305,349,59.285
B,2,1561298,vowelstep5.wav,None,1000,34,1621305,350,61.285
B,2,1561298,vowelstep3_catch.wav,1,397,34,1623306,359,63.285
B,2,1561298,vowelstep7.wav,None,1000,34,1625306,942,65.285
B,2,1561298,sinestep1.wav,None,1000,34,1627306,340,67.285
B,2,1561298,vowelstep5.wav,None,1000,34,1629306,339,69.285
B,2,1561298,vowelstep5_catch.wav,1,312,34,1631306,349,71.285
B,2,1561298,vowelstep7.wav,None,1000,34,1633306,1037,73.285
B,2,1561298,sinestep3.wav,None,1000,34,1635306,347,75.285
B,2,1561298,vowelstep7_catch.wav,None,1000,34,1637306,326,77.285
B,2,1561298,sinestep5.wav,None,1000,34,1639305,334,79.285
B,2,1561298,vowelstep5.wav,None,1000,34,1641306,337,81.285
B,2,1561298,silence.wav,None,1000,34,1643306,345,83.285
B,2,1561298,silence.wav,None,1000,34,1645306,348,85.285
B,2,1561298,vowelstep3.wav,None,1000,34,1647306,348,87.285
B,2,1561298,silence.wav,None,1000,34,1649306,347,89.285
B,2,1561298,sinestep1.wav,None,1000,34,1651306,358,91.285
B,2,1561298,sinestep1.wav,None,1000,34,1653306,338,93.285
B,2,1561298,sinestep5.wav,None,1000,34,1655306,338,95.285
B,2,1561298,vowelstep7.wav,None,1000,34,1657306,338,97.285
B,2,1561298,sinestep5.wav,None,1000,34,1659307,349,99.285
B,2,1561298,sinestep5.wav,None,1000,34,1661306,347,101.285
B,2,1561298,silence.wav,None,1000,34,1663306,348,103.285
B,2,1561298,vowelstep1.wav,None,1000,34,1665306,357,105.285
B,2,1561298,silence.wav,None,1000,34,1667306,337,107.285
B,2,1561298,sinestep1.wav,None,1000,34,1669306,337,109.285
B,2,1561298,vowelstep7.wav,None,1000,34,1671306,335,111.285
B,2,1561298,silence.wav,None,1000,34,1673306,346,113.285
B,2,1561298,sinestep1.wav,None,1000,34,1675306,347,115.285
B,2,1561298,vowelstep3.wav,None,1000,34,1677307,346,117.285
B,2,1561298,vowelstep5.wav,None,1000,34,1679307,356,119.285
B,2,1561298,silence.wav,None,1000,34,1681307,335,121.285
B,2,1561298,sinestep3.wav,None,1000,34,1683307,337,123.285
B,2,1561298,sinestep5.wav,None,1000,34,1685306,336,125.285
B,2,1561298,silence.wav,None,1000,34,1687306,347,127.285
B,2,1561298,vowelstep5.wav,None,1000,34,1689306,346,129.285
B,2,1561298,sinestep3.wav,None,1000,34,1691306,346,131.285
B,2,1561298,sinestep5.wav,None,1000,34,1693307,355,133.285
B,2,1561298,sinestep5.wav,None,1000,34,1695307,335,135.285
B,2,1561298,sinestep7.wav,None,1000,34,1697307,334,137.285
B,2,1561298,sinestep7.wav,None,1000,34,1699307,335,139.285
B,2,1561298,vowelstep5.wav,None,1000,34,1701307,334,141.285
B,2,1561298,sinestep1.wav,None,1000,34,1703307,345,143.285
B,2,1561298,vowelstep7.wav,None,1000,34,1705307,345,145.285
B,2,1561298,sinestep7.wav,None,1000,34,1707306,354,147.285
B,2,1561298,vowelstep5.wav,None,1000,34,1709306,325,149.285
B,2,1561298,vowelstep1.wav,None,1000,34,1711307,334,151.285
B,2,1561298,sinestep3.wav,None,1000,34,1713307,333,153.285
B,2,1561298,silence.wav,None,1000,34,1715307,343,155.285
B,2,1561298,silence.wav,None,1000,34,1717307,342,157.285
B,2,1561298,sinestep7_catch.wav,1,190,34,1719307,343,159.285
B,2,1561298,vowelstep5.wav,None,1000,34,1721307,1164,161.285
B,2,1561298,sinestep7.wav,None,1000,34,1723307,335,163.285
B,2,1561298,vowelstep5.wav,None,1000,34,1725307,334,165.285
B,2,1561298,vowelstep3.wav,None,1000,34,1727307,333,167.285
B,2,1561298,silence.wav,None,1000,34,1729308,335,169.285
B,2,1561298,sinestep3.wav,None,1000,34,1731307,342,171.285
B,2,1561298,sinestep7_catch.wav,1,210,34,1733307,343,173.285
B,2,1561298,sinestep3.wav,None,1000,34,1735307,1142,175.285
B,2,1561298,sinestep5_catch.wav,1,786,34,1737307,322,177.285
B,2,1561298,vowelstep5.wav,None,1000,34,1739307,545,179.285
B,2,1561298,silence.wav,None,1000,34,1741307,332,181.285
B,2,1561298,sinestep7.wav,None,1000,34,1743307,342,183.285
B,2,1561298,silence.wav,None,1000,34,1745308,342,185.285
B,2,1561298,sinestep3.wav,None,1000,34,1747308,341,187.285
B,2,1561298,silence.wav,None,1000,34,1749308,341,189.285
B,2,1561298,vowelstep7.wav,None,1000,34,1751308,320,191.285
B,2,1561298,vowelstep3.wav,None,1000,34,1753308,330,193.285
B,2,1561298,vowelstep3.wav,None,1000,34,1755307,332,195.285
B,2,1561298,sinestep7.wav,None,1000,34,1757307,341,197.285
B,2,1561298,sinestep7.wav,None,1000,34,1759307,339,199.285
B,2,1561298,sinestep3.wav,None,1000,34,1761307,340,201.285
B,2,1561298,sinestep3_catch.wav,1,153,34,1763308,339,203.285
B,2,1561298,sinestep1.wav,None,1000,34,1765308,1177,205.285
B,2,1561298,sinestep1.wav,None,1000,34,1767308,329,207.285
B,2,1561298,sinestep3.wav,None,1000,34,1769308,329,209.285
B,2,1561298,silence.wav,None,1000,34,1771308,329,211.285
B,2,1561298,silence.wav,None,1000,34,1773308,340,213.285
B,2,1561298,sinestep5_catch.wav,1,136,34,1775308,340,215.285
B,2,1561298,sinestep7.wav,None,1000,34,1777307,1203,217.285
B,2,1561298,sinestep7.wav,None,1000,34,1779307,319,219.285
B,2,1561298,vowelstep3.wav,None,1000,34,1781308,329,221.285
B,2,1561298,sinestep1_catch.wav,1,194,34,1783308,328,223.285
B,2,1561298,vowelstep5.wav,None,1000,34,1785308,1133,225.285
B,2,1561298,sinestep1.wav,None,1000,34,1787308,339,227.285
B,2,1561298,vowelstep1.wav,None,1000,34,1789308,338,229.285
B,2,1561298,vowelstep1.wav,None,1000,34,1791308,337,231.285
B,2,1561298,sinestep5.wav,None,1000,34,1793308,318,233.285
B,2,1561298,silence.wav,None,1000,34,1795308,328,235.285
B,2,1561298,silence.wav,None,1000,34,1797308,329,237.285
B,2,1561298,vowelstep1.wav,None,1000,34,1799309,326,239.285
B,2,1561298,vowelstep1.wav,None,1000,34,1801308,335,241.285
B,2,1561298,silence.wav,None,1000,34,1803308,335,243.285
B,2,1561298,vowelstep1_catch.wav,None,1000,34,1805308,335,245.285
B,2,1561298,sinestep7.wav,None,1000,34,1807308,344,247.285
B,2,1561298,sinestep1.wav,None,1000,34,1809308,325,249.285
B,2,1561298,vowelstep1.wav,None,1000,34,1811308,324,251.285
B,2,1561298,vowelstep3.wav,None,1000,34,1813308,325,253.285
B,2,1561298,sinestep3.wav,None,1000,34,1815309,336,255.285
B,2,1561298,silence.wav,None,1000,34,1817309,334,257.285
B,2,1561298,vowelstep3.wav,None,1000,34,1819309,334,259.285
B,2,1561298,silence.wav,None,1000,34,1821309,335,261.285
B,2,1561298,vowelstep3.wav,None,1000,34,1823309,325,263.285
B,2,1561298,sinestep5.wav,None,1000,34,1825308,325,265.285
B,2,1561298,vowelstep3_catch.wav,None,1000,34,1827308,325,267.285
B,2,1561298,sinestep3.wav,None,1000,34,1829308,352,269.285
B,2,1561298,sinestep1.wav,None,1000,34,1831308,335,271.285
B,2,1561298,vowelstep3.wav,None,1000,34,1833309,333,273.285
B,2,1561298,vowelstep1.wav,None,1000,34,1835309,343,275.285
B,2,1561298,vowelstep5_catch.wav,1,128,34,1837309,344,277.285
B,2,1561298,vowelstep1.wav,None,1000,34,1839309,1215,279.285
B,2,1561298,vowelstep5.wav,None,1000,34,1841309,353,281.285
B,2,1561298,sinestep7.wav,None,1000,34,1843309,323,283.285
B,2,1561298,vowelstep7.wav,None,1000,34,1845309,332,285.285
B,2,1561298,vowelstep1_catch.wav,1,150,34,1847308,333,287.285
B,2,1561298,sinestep1.wav,None,1000,34,1849308,1192,289.285
B,2,1561298,vowelstep1.wav,None,1000,34,1851309,343,291.285
B,2,1561298,sinestep5.wav,None,1000,34,1853309,342,293.285
B,2,1561298,vowelstep7.wav,None,1000,34,1855309,341,295.285
B,2,1561298,sinestep7.wav,None,1000,34,1857309,322,297.285
B,2,1561298,vowelstep7_catch.wav,1,261,34,1859309,332,299.285
B,2,1561298,sinestep3.wav,None,1000,34,1861309,1071,301.285
B,2,1561298,vowelstep3.wav,None,1000,34,1863309,332,303.285
B,2,1561298,sinestep5.wav,None,1000,34,1865309,342,305.285
B,2,1561298,vowelstep1.wav,None,1000,34,1867309,343,307.285
B,2,1561298,vowelstep7.wav,None,1000,34,1869310,341,309.285
B,2,1561298,vowelstep1.wav,None,1000,34,1871309,331,311.285
B,2,1561298,sinestep7.wav,None,1000,34,1873309,331,313.285
B,2,1561298,sinestep3.wav,None,1000,34,1875309,331,315.285
B,2,1561298,silence.wav,None,1000,34,1877309,341,317.285
B,2,1561298,vowelstep1.wav,None,1000,34,1879309,341,319.285
H,3,1936338,sinestep3.wav,None,1000,34,1936343,0,1.285
H,3,1936338,sinestep7.wav,None,1000,34,1938344,329,3.285
H,3,1936338,sinestep3.wav,None,1000,34,1940344,338,5.285
H,3,1936338,vowelstep3.wav,None,1000,34,1942344,336,7.285
H,3,1936338,vowelstep1.wav,None,1000,34,1944344,337,9.285
H,3,1936338,sinestep7.wav,None,1000,34,1946344,348,11.285
H,3,1936338,vowelstep3.wav,None,1000,34,1948343,345,13.285
H,3,1936338,silence.wav,None,1000,34,1950343,356,15.285
H,3,1936338,vowelstep1.wav,None,1000,34,1952343,328,17.285
H,3,1936338,sinestep5.wav,None,1000,34,1954343,336,19.285
H,3,1936338,sinestep7.wav,None,1000,34,1956344,337,21.285
H,3,1936338,vowelstep7.wav,None,1000,34,1958344,346,23.285
H,3,1936338,vowelstep1_catch.wav,1,258,34,1960344,346,25.285
H,3,1936338,sinestep5.wav,None,1000,34,1962344,1088,27.285
H,3,1936338,vowelstep5.wav,None,1000,34,1964344,346,29.285
H,3,1936338,silence.wav,None,1000,34,1966344,357,31.285
H,3,1936338,vowelstep3_catch.wav,1,200,34,1968344,337,33.285
H,3,1936338,sinestep7.wav,None,1000,34,1970343,1135,35.285
H,3,1936338,sinestep5.wav,None,1000,34,1972343,336,37.285
H,3,1936338,silence.wav,None,1000,34,1974344,346,39.285
H,3,1936338,vowelstep3.wav,None,1000,34,1976344,345,41.285
H,3,1936338,vowelstep1.wav,None,1000,34,1978344,345,43.285
H,3,1936338,vowelstep1.wav,None,1000,34,1980344,355,45.285
H,3,1936338,vowelstep3.wav,None,1000,34,1982344,333,47.285
H,3,1936338,sinestep3.wav,None,1000,34,1984344,335,49.285
H,3,1936338,vowelstep1.wav,None,1000,34,1986344,333,51.285
H,3,1936338,sinestep7.wav,None,1000,34,1988344,345,53.285
H,3,1936338,vowelstep7.wav,None,1000,34,1990345,344,55.285
H,3,1936338,vowelstep5_catch.wav,1,267,34,1992345,343,57.285
H,3,1936338,vowelstep5.wav,None,1000,34,1994344,1057,59.285
H,3,1936338,vowelstep3.wav,None,1000,34,1996344,335,61.285
H,3,1936338,vowelstep7_catch.wav,1,236,34,1998344,334,63.285
H,3,1936338,sinestep3.wav,None,1000,34,2000344,1098,65.285
H,3,1936338,sinestep1.wav,None,1000,34,2002344,345,67.285
H,3,1936338,sinestep7.wav,None,1000,34,2004344,344,69.285
H,3,1936338,silence.wav,None,1000,34,2006344,344,71.285
H,3,1936338,vowelstep1.wav,None,1000,34,2008345,353,73.285
H,3,1936338,vowelstep7.wav,None,1000,34,2010345,333,75.285
H,3,1936338,sinestep7.wav,None,1000,34,2012345,333,77.285
H,3,1936338,sinestep1.wav,None,1000,34,2014345,333,79.285
H,3,1936338,sinestep7.wav,None,1000,34,2016345,342,81.285
H,3,1936338,sinestep1.wav,None,1000,34,2018344,343,83.285
H,3,1936338,vowelstep5.wav,None,1000,34,2020344,342,85.285
H,3,1936338,sinestep3.wav,None,1000,34,2022344,353,87.285
H,3,1936338,vowelstep5.wav,None,1000,34,2024344,332,89.285
H,3,1936338,silence.wav,None,1000,34,2026345,332,91.285
H,3,1936338,silence.wav,None,1000,34,2028345,331,93.285
H,3,1936338,sinestep5.wav,None,1000,34,2030345,342,95.285
H,3,1936338,sinestep3.wav,None,1000,34,2032345,341,97.285
H,3,1936338,sinestep7.wav,None,1000,34,2034345,341,99.285
H,3,1936338,sinestep7_catch.wav,1,275,34,2036345,351,101.285
H,3,1936338,silence.wav,None,1000,34,2038345,1056,103.285
H,3,1936338,sinestep3.wav,None,1000,34,2040344,331,105.285
H,3,1936338,silence.wav,None,1000,34,2042344,332,107.285
H,3,1936338,vowelstep1.wav,None,1000,34,2044345,341,109.285
H,3,1936338,vowelstep7.wav,None,1000,34,2046345,288,111.285
H,3,1936338,sinestep5.wav,None,1000,34,2048345,340,113.285
H,3,1936338,silence.wav,None,1000,34,2050345,347,115.285
H,3,1936338,vowelstep7.wav,None,1000,34,2052345,349,117.285
H,3,1936338,vowelstep3.wav,None,1000,34,2054345,330,119.285
H,3,1936338,sinestep5.wav,None,1000,34,2056345,328,121.285
H,3,1936338,sinestep1.wav,None,1000,34,2058345,329,123.285
H,3,1936338,vowelstep3.wav,None,1000,34,2060346,338,125.285
H,3,1936338,vowelstep3.wav,None,1000,34,2062346,338,127.285
H,3,1936338,vowelstep5.wav,None,1000,34,2064345,340,129.285
H,3,1936338,vowelstep1.wav,None,1000,34,2066345,316,131.285
H,3,1936338,vowelstep7.wav,None,1000,34,2068345,328,133.285
H,3,1936338,vowelstep3.wav,None,1000,34,2070345,329,135.285
H,3,1936338,vowelstep5.wav,None,1000,34,2072345,339,137.285
H,3,1936338,vowelstep5.wav,None,1000,34,2074345,338,139.285
H,3,1936338,sinestep7.wav,None,1000,34,2076345,339,141.285
H,3,1936338,vowelstep1.wav,None,1000,34,2078346,337,143.285
H,3,1936338,sinestep3.wav,None,1000,34,2080346,347,145.285
H,3,1936338,sinestep1.wav,None,1000,34,2082346,327,147.285
H,3,1936338,vowelstep1.wav,None,1000,34,2084346,327,149.285
H,3,1936338,sinestep5_catch.wav,1,201,34,2086346,327,151.285
H,3,1936338,sinestep7.wav,None,1000,34,2088345,1136,153.285
H,3,1936338,sinestep3_catch.wav,1,262,34,2090345,338,155.285
H,3,1936338,sinestep7.wav,None,1000,34,2092345,1074,157.285
H,3,1936338,sinestep5.wav,None,1000,34,2094345,317,159.285
H,3,1936338,silence.wav,None,1000,34,2096346,327,161.285
H,3,1936338,sinestep1_catch.wav,1,216,34,2098346,326,163.285
H,3,1936338,vowelstep7.wav,None,1000,34,2100346,1110,165.285
H,3,1936338,vowelstep7.wav,None,1000,34,2102346,337,167.285
H,3,1936338,sinestep7.wav,None,1000,34,2104346,336,169.285
H,3,1936338,sinestep3.wav,None,1000,34,2106346,336,171.285
H,3,1936338,sinestep5.wav,None,1000,34,2108346,314,173.285
H,3,1936338,vowelstep1_catch.wav,1,258,34,2110345,326,175.285
H,3,1936338,vowelstep1.wav,None,1000,34,2112345,1067,177.285
H,3,1936338,sinestep3.wav,None,1000,34,2114346,326,179.285
H,3,1936338,sinestep3.wav,None,1000,34,2116346,334,181.285
H,3,1936338,vowelstep5.wav,None,1000,34,2118346,333,183.285
H,3,1936338,sinestep1.wav,None,1000,34,2120346,331,185.285
H,3,1936338,sinestep1.wav,None,1000,34,2122346,344,187.285
H,3,1936338,vowelstep7.wav,None,1000,34,2124346,325,189.285
H,3,1936338,sinestep1.wav,None,1000,34,2126346,324,191.285
H,3,1936338,sinestep5.wav,None,1000,34,2128346,324,193.285
H,3,1936338,vowelstep3_catch.wav,1,276,34,2130347,332,195.285
H,3,1936338,sinestep1.wav,None,1000,34,2132347,1056,197.285
H,3,1936338,silence.wav,None,1000,34,2134346,333,199.285
H,3,1936338,vowelstep1.wav,None,1000,34,2136346,335,201.285
H,3,1936338,vowelstep5_catch.wav,1,671,34,2138346,344,203.285
H,3,1936338,sinestep5.wav,None,1000,34,2140346,672,205.285
H,3,1936338,sinestep1.wav,None,1000,34,2142346,324,207.285
H,3,1936338,silence.wav,None,1000,34,2144346,334,209.285
H,3,1936338,sinestep3.wav,None,1000,34,2146346,334,211.285
H,3,1936338,silence.wav,None,1000,34,2148347,334,213.285
H,3,1936338,vowelstep7_catch.wav,1,375,34,2150347,343,215.285
H,3,1936338,vowelstep5.wav,None,1000,34,2152347,966,217.285
H,3,1936338,sinestep7.wav,None,1000,34,2154347,343,219.285
H,3,1936338,silence.wav,None,1000,34,2156346,352,221.285
H,3,1936338,sinestep1.wav,None,1000,34,2158346,323,223.285
H,3,1936338,silence.wav,None,1000,34,2160346,330,225.285
H,3,1936338,silence.wav,None,1000,34,2162346,333,227.285
H,3,1936338,silence.wav,None,1000,34,2164346,342,229.285
H,3,1936338,silence.wav,None,1000,34,2166347,343,231.285
H,3,1936338,sinestep5.wav,None,1000,34,2168347,342,233.285
H,3,1936338,silence.wav,None,1000,34,2170347,342,235.285
H,3,1936338,vowelstep3.wav,None,1000,34,2172347,319,237.285
H,3,1936338,silence.wav,None,1000,34,2174347,331,239.285
H,3,1936338,silence.wav,None,1000,34,2176347,332,241.285
H,3,1936338,vowelstep1_catch.wav,1,265,34,2178347,332,243.285
H,3,1936338,vowelstep5.wav,None,1000,34,2180346,1076,245.285
H,3,1936338,vowelstep7.wav,None,1000,34,2182346,341,247.285
H,3,1936338,vowelstep3_catch.wav,1,297,34,2184347,341,249.285
H,3,1936338,vowelstep1.wav,None,1000,34,2186347,1032,251.285
H,3,1936338,sinestep3.wav,None,1000,34,2188347,330,253.285
H,3,1936338,vowelstep5_catch.wav,None,1000,34,2190347,330,255.285
H,3,1936338,vowelstep5.wav,None,1000,34,2192347,340,257.285
H,3,1936338,silence.wav,None,1000,34,2194347,340,259.285
H,3,1936338,vowelstep7.wav,None,1000,34,2196347,341,261.285
H,3,1936338,sinestep5.wav,None,1000,34,2198347,340,263.285
H,3,1936338,vowelstep5.wav,None,1000,34,2200348,319,265.285
H,3,1936338,vowelstep7.wav,None,1000,34,2202348,330,267.285
H,3,1936338,vowelstep3.wav,None,1000,34,2204347,330,269.285
H,3,1936338,vowelstep3.wav,None,1000,34,2206347,329,271.285
H,3,1936338,silence.wav,None,1000,34,2208347,339,273.285
H,3,1936338,vowelstep3.wav,None,1000,34,2210347,339,275.285
H,3,1936338,sinestep1.wav,None,1000,34,2212347,339,277.285
H,3,1936338,silence.wav,None,1000,34,2214347,349,279.285
H,3,1936338,sinestep1.wav,None,1000,34,2216347,330,281.285
H,3,1936338,vowelstep3.wav,None,1000,34,2218348,330,283.285
H,3,1936338,silence.wav,None,1000,34,2220348,328,285.285
H,3,1936338,vowelstep5.wav,None,1000,34,2222348,338,287.285
H,3,1936338,vowelstep5.wav,None,1000,34,2224348,338,289.285
H,3,1936338,vowelstep1.wav,None,1000,34,2226347,338,291.285
H,3,1936338,sinestep5.wav,None,1000,34,2228347,247,293.285
H,3,1936338,vowelstep7.wav,None,1000,34,2230347,328,295.285
H,3,1936338,vowelstep1.wav,None,1000,34,2232347,328,297.285
H,3,1936338,vowelstep7.wav,None,1000,34,2234347,328,299.285
H,3,1936338,vowelstep3.wav,None,1000,34,2236348,338,301.285
H,3,1936338,sinestep1.wav,None,1000,34,2238348,313,303.285
H,3,1936338,sinestep5.wav,None,1000,34,2240348,338,305.285
H,3,1936338,vowelstep5.wav,None,1000,34,2242348,337,307.285
H,3,1936338,sinestep3.wav,None,1000,34,2244348,327,309.285
H,3,1936338,vowelstep7.wav,None,1000,34,2246348,325,311.285
H,3,1936338,sinestep7.wav,None,1000,34,2248348,328,313.285
H,3,1936338,sinestep5.wav,None,1000,34,2250347,326,315.285
H,3,1936338,sinestep3.wav,None,1000,34,2252348,338,317.285
H,3,1936338,sinestep1.wav,None,1000,34,2254348,336,319.285
J,4,2313243,sinestep5_catch.wav,None,1000,34,2313249,0,1.285
J,4,2313243,sinestep5.wav,None,1000,34,2315249,336,3.285
J,4,2313243,sinestep3.wav,None,1000,34,2317249,346,5.285
J,4,2313243,sinestep1.wav,None,1000,34,2319249,324,7.285
J,4,2313243,sinestep7.wav,None,1000,34,2321248,328,9.285
J,4,2313243,vowelstep3.wav,None,1000,34,2323249,327,11.285
J,4,2313243,sinestep1.wav,None,1000,34,2325249,251,13.285
J,4,2313243,vowelstep5.wav,None,1000,34,2327249,331,15.285
J,4,2313243,vowelstep3.wav,None,1000,34,2329249,334,17.285
J,4,2313243,vowelstep1.wav,None,1000,34,2331249,334,19.285
J,4,2313243,vowelstep1.wav,None,1000,34,2333249,314,21.285
J,4,2313243,sinestep3.wav,None,1000,34,2335249,221,23.285
J,4,2313243,silence.wav,None,1000,34,2337249,324,25.285
J,4,2313243,vowelstep7.wav,None,1000,34,2339249,241,27.285
J,4,2313243,sinestep3.wav,None,1000,34,2341249,335,29.285
J,4,2313243,sinestep7.wav,None,1000,34,2343249,333,31.285
J,4,2313243,silence.wav,None,1000,34,2345249,334,33.285
J,4,2313243,vowelstep5.wav,None,1000,34,2347249,314,35.285
J,4,2313243,sinestep1.wav,None,1000,34,2349249,310,37.285
J,4,2313243,sinestep1_catch.wav,2,206,34,2351249,170,39.285
J,4,2313243,sinestep7.wav,None,1000,34,2353249,1127,41.285
J,4,2313243,vowelstep7.wav,None,1000,34,2355249,335,43.285
J,4,2313243,sinestep3_catch.wav,2,89,34,2357250,334,45.285
J,4,2313243,vowelstep3.wav,None,1000,34,2359250,1242,47.285
J,4,2313243,vowelstep7.wav,None,1000,34,2361250,277,49.285
J,4,2313243,sinestep1.wav,None,1000,34,2363250,320,51.285
J,4,2313243,vowelstep3.wav,None,1000,34,2365249,247,53.285
J,4,2313243,vowelstep1.wav,None,1000,34,2367249,315,55.285
J,4,2313243,sinestep5.wav,None,1000,34,2369249,332,57.285
J,4,2313243,sinestep5_catch.wav,2,187,34,2371249,332,59.285
J,4,2313243,sinestep5.wav,None,1000,34,2373249,1144,61.285
J,4,2313243,vowelstep7.wav,None,1000,34,2375250,340,63.285
J,4,2313243,sinestep7.wav,None,1000,34,2377250,342,65.285
J,4,2313243,vowelstep1.wav,None,1000,34,2379250,342,67.285
J,4,2313243,sinestep7_catch.wav,2,211,34,2381250,322,69.285
J,4,2313243,silence.wav,None,1000,34,2383250,1120,71.285
J,4,2313243,vowelstep5.wav,None,1000,34,2385250,332,73.285
J,4,2313243,sinestep5.wav,None,1000,34,2387250,332,75.285
J,4,2313243,sinestep5.wav,None,1000,34,2389249,343,77.285
J,4,2313243,vowelstep3.wav,None,1000,34,2391249,341,79.285
J,4,2313243,vowelstep5.wav,None,1000,34,2393250,342,81.285
J,4,2313243,sinestep3.wav,None,1000,34,2395250,351,83.285
J,4,2313243,silence.wav,None,1000,34,2397250,330,85.285
J,4,2313243,vowelstep3.wav,None,1000,34,2399250,330,87.285
J,4,2313243,vowelstep7.wav,None,1000,34,2401250,329,89.285
J,4,2313243,silence.wav,None,1000,34,2403250,330,91.285
J,4,2313243,sinestep3.wav,None,1000,34,2405250,341,93.285
J,4,2313243,silence.wav,None,1000,34,2407250,340,95.285
J,4,2313243,sinestep1.wav,None,1000,34,2409250,350,97.285
J,4,2313243,sinestep5_catch.wav,2,222,34,2411250,318,99.285
J,4,2313243,sinestep7.wav,None,1000,34,2413250,1107,101.285
J,4,2313243,sinestep5.wav,None,1000,34,2415250,330,103.285
J,4,2313243,sinestep5.wav,None,1000,34,2417250,339,105.285
J,4,2313243,sinestep3.wav,None,1000,34,2419250,341,107.285
J,4,2313243,sinestep3_catch.wav,2,251,34,2421250,339,109.285
J,4,2313243,sinestep3.wav,None,1000,34,2423250,1098,111.285
J,4,2313243,silence.wav,None,1000,34,2425250,331,113.285
J,4,2313243,sinestep1.wav,None,1000,34,2427251,331,115.285
J,4,2313243,silence.wav,None,1000,34,2429251,330,117.285
J,4,2313243,vowelstep3.wav,None,1000,34,2431251,329,119.285
J,4,2313243,vowelstep5.wav,None,1000,34,2433251,341,121.285
J,4,2313243,vowelstep7.wav,None,1000,34,2435250,340,123.285
J,4,2313243,silence.wav,None,1000,34,2437250,349,125.285
J,4,2313243,sinestep1.wav,None,1000,34,2439250,315,127.285
J,4,2313243,sinestep3.wav,None,1000,34,2441250,326,129.285
J,4,2313243,sinestep7.wav,None,1000,34,2443250,327,131.285
J,4,2313243,silence.wav,None,1000,34,2445251,340,133.285
J,4,2313243,sinestep1.wav,None,1000,34,2447251,340,135.285
J,4,2313243,vowelstep7.wav,None,1000,34,2449251,340,137.285
J,4,2313243,sinestep5.wav,None,1000,34,2451251,349,139.285
J,4,2313243,vowelstep1.wav,None,1000,34,2453251,329,141.285
J,4,2313243,vowelstep7.wav,None,1000,34,2455251,328,143.285
J,4,2313243,vowelstep3.wav,None,1000,34,2457251,329,145.285
J,4,2313243,vowelstep3.wav,None,1000,34,2459250,339,147.285
J,4,2313243,sinestep7.wav,None,1000,34,2461250,339,149.285
J,4,2313243,vowelstep5.wav,None,1000,34,2463251,338,151.285
J,4,2313243,silence.wav,None,1000,34,2465251,338,153.285
J,4,2313243,sinestep1.wav,None,1000,34,2467251,348,155.285
J,4,2313243,sinestep3.wav,None,1000,34,2469251,328,157.285
J,4,2313243,silence.wav,None,1000,34,2471251,325,159.285
J,4,2313243,sinestep1.wav,None,1000,34,2473251,325,161.285
J,4,2313243,vowelstep7.wav,None,1000,34,2475251,338,163.285
J,4,2313243,vowelstep7.wav,None,1000,34,2477251,338,165.285
J,4,2313243,sinestep1_catch.wav,1,242,34,2479251,337,167.285
J,4,2313243,vowelstep1_catch.wav,1,806,34,2481251,1074,169.285
J,4,2313243,vowelstep1.wav,None,1000,34,2483251,521,171.285
J,4,2313243,vowelstep7.wav,None,1000,34,2485251,324,173.285
J,4,2313243,sinestep1.wav,None,1000,34,2487251,337,175.285
J,4,2313243,vowelstep5.wav,None,1000,34,2489251,338,177.285
J,4,2313243,vowelstep5.wav,None,1000,34,2491251,337,179.285
J,4,2313243,sinestep5.wav,None,1000,34,2493251,337,181.285
J,4,2313243,sinestep7.wav,None,1000,34,2495251,321,183.285
J,4,2313243,sinestep7.wav,None,1000,34,2497252,324,185.285
J,4,2313243,sinestep1.wav,None,1000,34,2499252,327,187.285
J,4,2313243,vowelstep1.wav,None,1000,34,2501252,258,189.285
J,4,2313243,silence.wav,None,1000,34,2503252,336,191.285
J,4,2313243,sinestep5.wav,None,1000,34,2505251,336,193.285
J,4,2313243,vowelstep5.wav,None,1000,34,2507251,336,195.285
J,4,2313243,vowelstep1.wav,None,1000,34,2509251,316,197.285
J,4,2313243,vowelstep1.wav,None,1000,34,2511251,324,199.285
J,4,2313243,sinestep3.wav,None,1000,34,2513251,325,201.285
J,4,2313243,sinestep3.wav,None,1000,34,2515252,323,203.285
J,4,2313243,silence.wav,None,1000,34,2517252,335,205.285
J,4,2313243,sinestep5.wav,None,1000,34,2519252,336,207.285
J,4,2313243,vowelstep1.wav,None,1000,34,2521252,335,209.285
J,4,2313243,vowelstep5.wav,None,1000,34,2523252,323,211.285
J,4,2313243,vowelstep3.wav,None,1000,34,2525252,322,213.285
J,4,2313243,vowelstep3.wav,None,1000,34,2527251,322,215.285
J,4,2313243,silence.wav,None,1000,34,2529251,323,217.285
J,4,2313243,sinestep1.wav,None,1000,34,2531251,334,219.285
J,4,2313243,vowelstep3.wav,None,1000,34,2533252,334,221.285
J,4,2313243,sinestep7.wav,None,1000,34,2535252,335,223.285
J,4,2313243,vowelstep7.wav,None,1000,34,2537252,344,225.285
J,4,2313243,silence.wav,None,1000,34,2539252,320,227.285
J,4,2313243,vowelstep5.wav,None,1000,34,2541252,319,229.285
J,4,2313243,silence.wav,None,1000,34,2543252,320,231.285
J,4,2313243,sinestep3.wav,None,1000,34,2545252,334,233.285
J,4,2313243,vowelstep5.wav,None,1000,34,2547252,335,235.285
J,4,2313243,vowelstep3.wav,None,1000,34,2549252,334,237.285
J,4,2313243,vowelstep5.wav,None,1000,34,2551252,343,239.285
J,4,2313243,vowelstep7.wav,None,1000,34,2553252,313,241.285
J,4,2313243,vowelstep1.wav,None,1000,34,2555252,320,243.285
J,4,2313243,sinestep7.wav,None,1000,34,2557252,320,245.285
J,4,2313243,sinestep7.wav,None,1000,34,2559252,329,247.285
J,4,2313243,silence.wav,None,1000,34,2561252,334,249.285
J,4,2313243,vowelstep1.wav,None,1000,34,2563252,332,251.285
J,4,2313243,vowelstep3_catch.wav,1,303,34,2565252,332,253.285
J,4,2313243,vowelstep1.wav,None,1000,34,2567253,1009,255.285
J,4,2313243,vowelstep5_catch.wav,1,269,34,2569253,260,257.285
J,4,2313243,silence.wav,None,1000,34,2571253,1053,259.285
J,4,2313243,sinestep5.wav,None,1000,34,2573253,320,261.285
J,4,2313243,vowelstep1.wav,None,1000,34,2575252,331,263.285
J,4,2313243,sinestep5.wav,None,1000,34,2577252,332,265.285
J,4,2313243,vowelstep3.wav,None,1000,34,2579252,342,267.285
J,4,2313243,sinestep5.wav,None,1000,34,2581252,312,269.285
J,4,2313243,sinestep7.wav,None,1000,34,2583252,251,271.285
J,4,2313243,silence.wav,None,1000,34,2585253,291,273.285
J,4,2313243,vowelstep7_catch.wav,1,143,34,2587253,331,275.285
J,4,2313243,sinestep3.wav,None,1000,34,2589253,1188,277.285
J,4,2313243,vowelstep5.wav,None,1000,34,2591253,331,279.285
J,4,2313243,silence.wav,None,1000,34,2593253,331,281.285
J,4,2313243,silence.wav,None,1000,34,2595253,311,283.285
J,4,2313243,silence.wav,None,1000,34,2597252,253,285.285
J,4,2313243,vowelstep7.wav,None,1000,34,2599252,351,287.285
J,4,2313243,sinestep3.wav,None,1000,34,2601252,252,289.285
J,4,2313243,vowelstep5_catch.wav,1,310,34,2603253,332,291.285
J,4,2313243,silence.wav,None,1000,34,2605253,1020,293.285
J,4,2313243,sinestep7.wav,None,1000,34,2607253,339,295.285
J,4,2313243,vowelstep1.wav,None,1000,34,2609253,340,297.285
J,4,2313243,silence.wav,None,1000,34,2611253,320,299.285
J,4,2313243,sinestep1.wav,None,1000,34,2613253,318,301.285
J,4,2313243,sinestep5.wav,None,1000,34,2615253,320,303.285
J,4,2313243,vowelstep5.wav,None,1000,34,2617253,330,305.285
J,4,2313243,vowelstep3.wav,None,1000,34,2619253,329,307.285
J,4,2313243,sinestep7.wav,None,1000,34,2621253,329,309.285
J,4,2313243,vowelstep7.wav,None,1000,34,2623253,339,311.285
J,4,2313243,vowelstep3_catch.wav,1,245,34,2625253,339,313.285
J,4,2313243,vowelstep1_catch.wav,1,225,34,2627253,1093,315.285
J,4,2313243,sinestep3.wav,None,1000,34,2629253,1126,317.285
J,4,2313243,sinestep1.wav,None,1000,34,2631253,327,319.285
I,5,2691520,vowelstep7.wav,None,1000,34,2691538,0,1.285
I,5,2691520,sinestep1_catch.wav,1,209,34,2693538,331,3.285
I,5,2691520,sinestep3.wav,None,1000,34,2695538,1123,5.285
I,5,2691520,silence.wav,None,1000,34,2697537,311,7.285
I,5,2691520,vowelstep7.wav,None,1000,34,2699537,312,9.285
I,5,2691520,sinestep3_catch.wav,1,177,34,2701537,322,11.285
I,5,2691520,vowelstep3.wav,None,1000,34,2703537,1144,13.285
I,5,2691520,vowelstep3.wav,None,1000,34,2705537,321,15.285
I,5,2691520,silence.wav,None,1000,34,2707538,330,17.285
I,5,2691520,vowelstep1.wav,None,1000,34,2709538,329,19.285
I,5,2691520,vowelstep5.wav,None,1000,34,2711538,330,21.285
I,5,2691520,vowelstep7.wav,None,1000,34,2713538,331,23.285
I,5,2691520,sinestep1.wav,None,1000,34,2715538,321,25.285
I,5,2691520,vowelstep1.wav,None,1000,34,2717538,320,27.285
I,5,2691520,sinestep5_catch.wav,1,240,34,2719538,321,29.285
I,5,2691520,sinestep5.wav,None,1000,34,2721537,1080,31.285
I,5,2691520,vowelstep1.wav,None,1000,34,2723537,330,33.285
I,5,2691520,sinestep7.wav,None,1000,34,2725538,331,35.285
I,5,2691520,vowelstep3.wav,None,1000,34,2727538,340,37.285
I,5,2691520,vowelstep1.wav,None,1000,34,2729538,310,39.285
I,5,2691520,vowelstep1.wav,None,1000,34,2731538,321,41.285
I,5,2691520,sinestep3.wav,None,1000,34,2733538,320,43.285
I,5,2691520,sinestep5.wav,None,1000,34,2735538,320,45.285
I,5,2691520,sinestep5.wav,None,1000,34,2737538,331,47.285
I,5,2691520,vowelstep3.wav,None,1000,34,2739538,330,49.285
I,5,2691520,silence.wav,None,1000,34,2741538,340,51.285
I,5,2691520,sinestep7_catch.wav,1,280,34,2743539,339,53.285
I,5,2691520,silence.wav,None,1000,34,2745538,1037,55.285
I,5,2691520,sinestep1.wav,None,1000,34,2747538,319,57.285
I,5,2691520,vowelstep1.wav,None,1000,34,2749538,319,59.285
I,5,2691520,sinestep1.wav,None,1000,34,2751538,330,61.285
I,5,2691520,sinestep1.wav,None,1000,34,2753538,328,63.285
I,5,2691520,vowelstep7.wav,None,1000,34,2755538,339,65.285
I,5,2691520,sinestep5.wav,None,1000,34,2757538,339,67.285
I,5,2691520,sinestep5_catch.wav,1,338,34,2759539,318,69.285
I,5,2691520,vowelstep7.wav,None,1000,34,2761539,979,71.285
I,5,2691520,vowelstep5.wav,None,1000,34,2763539,318,73.285
I,5,2691520,sinestep3.wav,None,1000,34,2765539,327,75.285
I,5,2691520,vowelstep1.wav,None,1000,34,2767538,328,77.285
I,5,2691520,sinestep3.wav,None,1000,34,2769538,337,79.285
I,5,2691520,sinestep5.wav,None,1000,34,2771538,339,81.285
I,5,2691520,sinestep5.wav,None,1000,34,2773538,317,83.285
I,5,2691520,vowelstep5.wav,None,1000,34,2775538,317,85.285
I,5,2691520,vowelstep7.wav,None,1000,34,2777539,328,87.285
I,5,2691520,sinestep3.wav,None,1000,34,2779539,328,89.285
I,5,2691520,vowelstep3.wav,None,1000,34,2781539,327,91.285
I,5,2691520,sinestep3.wav,None,1000,34,2783539,326,93.285
I,5,2691520,vowelstep5.wav,None,1000,34,2785539,336,95.285
I,5,2691520,sinestep7.wav,None,1000,34,2787539,316,97.285
I,5,2691520,sinestep3_catch.wav,1,229,34,2789539,316,99.285
I,5,2691520,sinestep1_catch.wav,1,201,34,2791538,1085,101.285
I,5,2691520,vowelstep3.wav,None,1000,34,2793538,1124,103.285
I,5,2691520,vowelstep3.wav,None,1000,34,2795539,327,105.285
I,5,2691520,vowelstep5.wav,None,1000,34,2797522,325,107.285
I,5,2691520,sinestep5.wav,None,1000,34,2799539,336,109.285
I,5,2691520,vowelstep5.wav,None,1000,34,2801539,306,111.285
I,5,2691520,vowelstep5.wav,None,1000,34,2803539,316,113.285
I,5,2691520,vowelstep1.wav,None,1000,34,2805539,315,115.285
I,5,2691520,vowelstep1_catch.wav,1,358,34,2807539,326,117.285
I,5,2691520,sinestep7.wav,None,1000,34,2809539,967,119.285
I,5,2691520,vowelstep3.wav,None,1000,34,2811539,326,121.285
I,5,2691520,sinestep7.wav,None,1000,34,2813523,326,123.285
I,5,2691520,sinestep7.wav,None,1000,34,2815523,334,125.285
I,5,2691520,vowelstep7.wav,None,1000,34,2817539,334,127.285
I,5,2691520,vowelstep3.wav,None,1000,34,2819539,314,129.285
I,5,2691520,sinestep5.wav,None,1000,34,2821539,325,131.285
I,5,2691520,sinestep5.wav,None,1000,34,2823539,324,133.285
I,5,2691520,vowelstep3.wav,None,1000,34,2825539,323,135.285
I,5,2691520,sinestep5.wav,None,1000,34,2827539,335,137.285
I,5,2691520,sinestep1.wav,None,1000,34,2829523,314,139.285
I,5,2691520,vowelstep7.wav,None,1000,34,2831523,333,141.285
I,5,2691520,silence.wav,None,1000,34,2833523,343,143.285
I,5,2691520,vowelstep7.wav,None,1000,34,2835540,344,145.285
I,5,2691520,silence.wav,None,1000,34,2837539,323,147.285
I,5,2691520,sinestep1.wav,None,1000,34,2839539,323,149.285
I,5,2691520,vowelstep1.wav,None,1000,34,2841539,323,151.285
I,5,2691520,vowelstep3.wav,None,1000,34,2843539,305,153.285
I,5,2691520,silence.wav,None,1000,34,2845539,313,155.285
I,5,2691520,silence.wav,None,1000,34,2847523,314,157.285
I,5,2691520,vowelstep1.wav,None,1000,34,2849523,343,159.285
I,5,2691520,sinestep1.wav,None,1000,34,2851523,342,161.285
I,5,2691520,vowelstep3_catch.wav,1,263,34,2853540,342,163.285
I,5,2691520,sinestep1.wav,None,1000,34,2855540,1059,165.285
I,5,2691520,vowelstep5.wav,None,1000,34,2857540,312,167.285
I,5,2691520,vowelstep5_catch.wav,1,161,34,2859540,312,169.285
I,5,2691520,sinestep1.wav,None,1000,34,2861523,1151,171.285
I,5,2691520,silence.wav,None,1000,34,2863523,342,173.285
I,5,2691520,vowelstep5.wav,None,1000,34,2865524,341,175.285
I,5,2691520,sinestep3.wav,None,1000,34,2867523,341,177.285
I,5,2691520,sinestep3.wav,None,1000,34,2869523,351,179.285
I,5,2691520,silence.wav,None,1000,34,2871540,330,181.285
I,5,2691520,silence.wav,None,1000,34,2873540,309,183.285
I,5,2691520,vowelstep3.wav,None,1000,34,2875540,311,185.285
I,5,2691520,vowelstep7.wav,None,1000,34,2877523,321,187.285
I,5,2691520,vowelstep7.wav,None,1000,34,2879523,343,189.285
I,5,2691520,silence.wav,None,1000,34,2881523,342,191.285
I,5,2691520,sinestep3.wav,None,1000,34,2883524,320,193.285
I,5,2691520,sinestep3.wav,None,1000,34,2885524,329,195.285
I,5,2691520,vowelstep5.wav,None,1000,34,2887524,330,197.285
I,5,2691520,vowelstep1.wav,None,1000,34,2889540,329,199.285
I,5,2691520,vowelstep1.wav,None,1000,34,2891540,309,201.285
I,5,2691520,sinestep5.wav,None,1000,34,2893523,319,203.285
I,5,2691520,silence.wav,None,1000,34,2895523,339,205.285
I,5,2691520,sinestep5.wav,None,1000,34,2897523,350,207.285
I,5,2691520,sinestep7.wav,None,1000,34,2899524,326,209.285
I,5,2691520,sinestep1.wav,None,1000,34,2901524,328,211.285
I,5,2691520,sinestep5.wav,None,1000,34,2903524,328,213.285
I,5,2691520,vowelstep5.wav,None,1000,34,2905524,339,215.285
I,5,2691520,sinestep7.wav,None,1000,34,2907524,340,217.285
I,5,2691520,sinestep5.wav,None,1000,34,2909524,349,219.285
I,5,2691520,sinestep3.wav,None,1000,34,2911524,350,221.285
I,5,2691520,silence.wav,None,1000,34,2913523,330,223.285
I,5,2691520,vowelstep7_catch.wav,1,223,34,2915523,330,225.285
I,5,2691520,sinestep7.wav,None,1000,34,2917524,1105,227.285
I,5,2691520,sinestep7.wav,None,1000,34,2919524,339,229.285
I,5,2691520,sinestep3.wav,None,1000,34,2921524,338,231.285
I,5,2691520,vowelstep3.wav,None,1000,34,2923524,338,233.285
I,5,2691520,silence.wav,None,1000,34,2925524,348,235.285
I,5,2691520,sinestep3.wav,None,1000,34,2927524,328,237.285
I,5,2691520,sinestep5.wav,None,1000,34,2929524,327,239.285
I,5,2691520,silence.wav,None,1000,34,2931524,328,241.285
I,5,2691520,vowelstep3.wav,None,1000,34,2933524,337,243.285
I,5,2691520,sinestep1.wav,None,1000,34,2935525,338,245.285
I,5,2691520,sinestep1.wav,None,1000,34,2937524,337,247.285
I,5,2691520,sinestep7.wav,None,1000,34,2939524,347,249.285
I,5,2691520,vowelstep7.wav,None,1000,34,2941524,327,251.285
I,5,2691520,vowelstep5.wav,None,1000,34,2943524,327,253.285
I,5,2691520,silence.wav,None,1000,34,2945524,325,255.285
I,5,2691520,sinestep3.wav,None,1000,34,2947524,328,257.285
I,5,2691520,vowelstep1.wav,None,1000,34,2949524,337,259.285
I,5,2691520,vowelstep1.wav,None,1000,34,2951524,338,261.285
I,5,2691520,silence.wav,None,1000,34,2953525,316,263.285
I,5,2691520,vowelstep3.wav,None,1000,34,2955525,325,265.285
I,5,2691520,silence.wav,None,1000,34,2957525,326,267.285
I,5,2691520,silence.wav,None,1000,34,2959525,326,269.285
I,5,2691520,sinestep7.wav,None,1000,34,2961524,335,271.285
I,5,2691520,sinestep7.wav,None,1000,34,2963524,336,273.285
I,5,2691520,vowelstep5.wav,None,1000,34,2965524,335,275.285
I,5,2691520,silence.wav,None,1000,34,2967524,336,277.285
I,5,2691520,silence.wav,None,1000,34,2969525,324,279.285
I,5,2691520,sinestep1.wav,None,1000,34,2971525,325,281.285
I,5,2691520,silence.wav,None,1000,34,2973525,325,283.285
I,5,2691520,vowelstep7.wav,None,1000,34,2975525,325,285.285
I,5,2691520,vowelstep5_catch.wav,1,279,34,2977525,335,287.285
I,5,2691520,sinestep7.wav,None,1000,34,2979525,1054,289.285
I,5,2691520,sinestep1.wav,None,1000,34,2981525,345,291.285
I,5,2691520,vowelstep3_catch.wav,1,173,34,2983524,325,293.285
I,5,2691520,sinestep1.wav,None,1000,34,2985524,1172,295.285
I,5,2691520,vowelstep7.wav,None,1000,34,2987525,354,297.285
I,5,2691520,sinestep3.wav,None,1000,34,2989525,354,299.285
I,5,2691520,vowelstep5.wav,None,1000,34,2991525,332,301.285
I,5,2691520,vowelstep1_catch.wav,1,196,34,2993525,333,303.285
I,5,2691520,vowelstep7.wav,None,1000,34,2995525,1136,305.285
I,5,2691520,vowelstep5.wav,None,1000,34,2997525,343,307.285
I,5,2691520,sinestep1_catch.wav,1,237,34,2999525,343,309.285
I,5,2691520,silence.wav,None,1000,34,3001525,1106,311.285
I,5,2691520,sinestep7.wav,None,1000,34,3003525,353,313.285
I,5,2691520,silence.wav,None,1000,34,3005526,334,315.285
I,5,2691520,vowelstep1.wav,None,1000,34,3007525,333,317.285
I,5,2691520,sinestep7.wav,None,1000,34,3009525,333,319.285
E,6,3074152,vowelstep7.wav,None,1000,34,3074160,0,1.285
E,6,3074152,sinestep3.wav,None,1000,34,3076160,329,3.285
E,6,3074152,sinestep5.wav,None,1000,34,3078160,330,5.285
E,6,3074152,sinestep1.wav,None,1000,34,3080160,341,7.285
E,6,3074152,sinestep5.wav,None,1000,34,3082160,341,9.285
E,6,3074152,silence.wav,None,1000,34,3084159,341,11.285
E,6,3074152,vowelstep1.wav,None,1000,34,3086159,350,13.285
E,6,3074152,vowelstep7.wav,None,1000,34,3088159,330,15.285
E,6,3074152,vowelstep1.wav,None,1000,34,3090159,331,17.285
E,6,3074152,sinestep1_catch.wav,1,170,34,3092160,330,19.285
E,6,3074152,vowelstep5.wav,None,1000,34,3094160,1158,21.285
E,6,3074152,sinestep5.wav,None,1000,34,3096160,339,23.285
E,6,3074152,vowelstep5.wav,None,1000,34,3098160,340,25.285
E,6,3074152,vowelstep3.wav,None,1000,34,3100160,339,27.285
E,6,3074152,sinestep1.wav,None,1000,34,3102160,330,29.285
E,6,3074152,vowelstep5.wav,None,1000,34,3104160,329,31.285
E,6,3074152,silence.wav,None,1000,34,3106160,329,33.285
E,6,3074152,silence.wav,None,1000,34,3108159,330,35.285
E,6,3074152,sinestep3.wav,None,1000,34,3110160,340,37.285
E,6,3074152,sinestep3.wav,None,1000,34,3112160,339,39.285
E,6,3074152,sinestep3.wav,None,1000,34,3114160,339,41.285
E,6,3074152,sinestep1.wav,None,1000,34,3116160,329,43.285
E,6,3074152,vowelstep1.wav,None,1000,34,3118160,329,45.285
E,6,3074152,sinestep1.wav,None,1000,34,3120160,328,47.285
E,6,3074152,vowelstep7.wav,None,1000,34,3122160,328,49.285
E,6,3074152,vowelstep5.wav,None,1000,34,3124160,338,51.285
E,6,3074152,sinestep7.wav,None,1000,34,3126160,338,53.285
E,6,3074152,sinestep1.wav,None,1000,34,3128161,348,55.285
E,6,3074152,vowelstep5.wav,None,1000,34,3130161,347,57.285
E,6,3074152,sinestep3.wav,None,1000,34,3132160,327,59.285
E,6,3074152,vowelstep1.wav,None,1000,34,3134160,328,61.285
E,6,3074152,vowelstep5.wav,None,1000,34,3136160,327,63.285
E,6,3074152,vowelstep3.wav,None,1000,34,3138160,337,65.285
E,6,3074152,sinestep1.wav,None,1000,34,3140160,337,67.285
E,6,3074152,vowelstep3.wav,None,1000,34,3142160,337,69.285
E,6,3074152,silence.wav,None,1000,34,3144161,347,71.285
E,6,3074152,vowelstep3.wav,None,1000,34,3146161,324,73.285
E,6,3074152,sinestep3_catch.wav,1,277,34,3148161,327,75.285
E,6,3074152,sinestep3.wav,None,1000,34,3150161,1049,77.285
E,6,3074152,vowelstep3.wav,None,1000,34,3152161,336,79.285
E,6,3074152,vowelstep7.wav,None,1000,34,3154160,337,81.285
E,6,3074152,silence.wav,None,1000,34,3156160,337,83.285
E,6,3074152,sinestep3.wav,None,1000,34,3158160,317,85.285
E,6,3074152,silence.wav,None,1000,34,3160160,316,87.285
E,6,3074152,sinestep1.wav,None,1000,34,3162161,326,89.285
E,6,3074152,sinestep5_catch.wav,1,279,34,3164161,336,91.285
E,6,3074152,vowelstep3.wav,None,1000,34,3166161,1053,93.285
E,6,3074152,sinestep5.wav,None,1000,34,3168161,335,95.285
E,6,3074152,vowelstep7.wav,None,1000,34,3170161,335,97.285
E,6,3074152,sinestep1.wav,None,1000,34,3172161,345,99.285
E,6,3074152,sinestep5.wav,None,1000,34,3174161,325,101.285
E,6,3074152,sinestep5.wav,None,1000,34,3176160,323,103.285
E,6,3074152,vowelstep7.wav,None,1000,34,3178160,325,105.285
E,6,3074152,vowelstep3.wav,None,1000,34,3180161,336,107.285
E,6,3074152,vowelstep7.wav,None,1000,34,3182161,335,109.285
E,6,3074152,sinestep5.wav,None,1000,34,3184161,336,111.285
E,6,3074152,vowelstep3.wav,None,1000,34,3186161,345,113.285
E,6,3074152,vowelstep7.wav,None,1000,34,3188161,324,115.285
E,6,3074152,sinestep3.wav,None,1000,34,3190161,324,117.285
E,6,3074152,vowelstep7.wav,None,1000,34,3192161,324,119.285
E,6,3074152,silence.wav,None,1000,34,3194161,325,121.285
E,6,3074152,silence.wav,None,1000,34,3196161,335,123.285
E,6,3074152,sinestep7.wav,None,1000,34,3198162,329,125.285
E,6,3074152,sinestep7_catch.wav,1,408,34,3200161,342,127.285
E,6,3074152,sinestep7.wav,None,1000,34,3202161,905,129.285
E,6,3074152,silence.wav,None,1000,34,3204161,322,131.285
E,6,3074152,sinestep7_catch.wav,1,213,34,3206161,323,133.285
E,6,3074152,sinestep7.wav,None,1000,34,3208161,1119,135.285
E,6,3074152,sinestep5_catch.wav,1,149,34,3210161,333,137.285
E,6,3074152,sinestep1.wav,None,1000,34,3212161,1183,139.285
E,6,3074152,sinestep1.wav,None,1000,34,3214162,333,141.285
E,6,3074152,sinestep1.wav,None,1000,34,3216162,323,143.285
E,6,3074152,sinestep3.wav,None,1000,34,3218162,322,145.285
E,6,3074152,vowelstep5.wav,None,1000,34,3220162,322,147.285
E,6,3074152,silence.wav,None,1000,34,3222162,323,149.285
E,6,3074152,sinestep3_catch.wav,1,284,34,3224161,332,151.285
E,6,3074152,silence.wav,None,1000,34,3226161,1049,153.285
E,6,3074152,sinestep7.wav,None,1000,34,3228161,333,155.285
E,6,3074152,sinestep5.wav,None,1000,34,3230161,311,157.285
E,6,3074152,silence.wav,None,1000,34,3232162,322,159.285
E,6,3074152,vowelstep5.wav,None,1000,34,3234162,321,161.285
E,6,3074152,vowelstep1.wav,None,1000,34,3236162,331,163.285
E,6,3074152,vowelstep3.wav,None,1000,34,3238162,331,165.285
E,6,3074152,sinestep5.wav,None,1000,34,3240162,331,167.285
E,6,3074152,sinestep7.wav,None,1000,34,3242162,331,169.285
E,6,3074152,vowelstep1.wav,None,1000,34,3244162,320,171.285
E,6,3074152,vowelstep7.wav,None,1000,34,3246161,321,173.285
E,6,3074152,sinestep3.wav,None,1000,34,3248161,321,175.285
E,6,3074152,silence.wav,None,1000,34,3250162,321,177.285
E,6,3074152,sinestep1_catch.wav,1,374,34,3252162,330,179.285
E,6,3074152,sinestep7.wav,None,1000,34,3254162,957,181.285
E,6,3074152,vowelstep1.wav,None,1000,34,3256162,340,183.285
E,6,3074152,sinestep5.wav,None,1000,34,3258162,340,185.285
E,6,3074152,sinestep5.wav,None,1000,34,3260162,321,187.285
E,6,3074152,vowelstep1.wav,None,1000,34,3262162,321,189.285
E,6,3074152,sinestep7.wav,None,1000,34,3264162,319,191.285
E,6,3074152,sinestep3.wav,None,1000,34,3266162,330,193.285
E,6,3074152,sinestep7.wav,None,1000,34,3268163,329,195.285
E,6,3074152,silence.wav,None,1000,34,3270162,328,197.285
E,6,3074152,vowelstep1.wav,None,1000,34,3272162,339,199.285
E,6,3074152,sinestep1.wav,None,1000,34,3274162,319,201.285
E,6,3074152,vowelstep1.wav,None,1000,34,3276162,319,203.285
E,6,3074152,vowelstep1.wav,None,1000,34,3278162,318,205.285
E,6,3074152,vowelstep1_catch.wav,1,306,34,3280162,328,207.285
E,6,3074152,vowelstep1.wav,None,1000,34,3282162,1023,209.285
E,6,3074152,vowelstep1.wav,None,1000,34,3284163,328,211.285
E,6,3074152,silence.wav,None,1000,34,3286163,327,213.285
E,6,3074152,sinestep7.wav,None,1000,34,3288163,317,215.285
E,6,3074152,vowelstep7.wav,None,1000,34,3290163,318,217.285
E,6,3074152,vowelstep3_catch.wav,1,267,34,3292163,317,219.285
E,6,3074152,vowelstep5.wav,None,1000,34,3294162,1060,221.285
E,6,3074152,sinestep3.wav,None,1000,34,3296162,327,223.285
E,6,3074152,silence.wav,None,1000,34,3298162,328,225.285
E,6,3074152,sinestep1.wav,None,1000,34,3300162,338,227.285
E,6,3074152,sinestep5.wav,None,1000,34,3302163,338,229.285
E,6,3074152,sinestep5.wav,None,1000,34,3304163,337,231.285
E,6,3074152,sinestep3.wav,None,1000,34,3306163,336,233.285
E,6,3074152,sinestep5.wav,None,1000,34,3308163,327,235.285
E,6,3074152,vowelstep3.wav,None,1000,34,3310163,326,237.285
E,6,3074152,sinestep7.wav,None,1000,34,3312163,326,239.285
E,6,3074152,sinestep7.wav,None,1000,34,3314163,326,241.285
E,6,3074152,silence.wav,None,1000,34,3316162,333,243.285
E,6,3074152,sinestep3.wav,None,1000,34,3318162,335,245.285
E,6,3074152,sinestep3.wav,None,1000,34,3320163,345,247.285
E,6,3074152,vowelstep3.wav,None,1000,34,3322163,314,249.285
E,6,3074152,silence.wav,None,1000,34,3324163,320,251.285
E,6,3074152,sinestep7.wav,None,1000,34,3326163,325,253.285
E,6,3074152,silence.wav,None,1000,34,3328163,334,255.285
E,6,3074152,vowelstep7.wav,None,1000,34,3330163,335,257.285
E,6,3074152,vowelstep3.wav,None,1000,34,3332163,335,259.285
E,6,3074152,silence.wav,None,1000,34,3334163,344,261.285
E,6,3074152,vowelstep3.wav,None,1000,34,3336163,344,263.285
E,6,3074152,vowelstep1.wav,None,1000,34,3338164,324,265.285
E,6,3074152,vowelstep5.wav,None,1000,34,3340163,322,267.285
E,6,3074152,silence.wav,None,1000,34,3342163,323,269.285
E,6,3074152,vowelstep3.wav,None,1000,34,3344163,333,271.285
E,6,3074152,sinestep1.wav,None,1000,34,3346163,333,273.285
E,6,3074152,vowelstep5_catch.wav,1,401,34,3348163,333,275.285
E,6,3074152,sinestep7.wav,None,1000,34,3350163,942,277.285
E,6,3074152,sinestep7.wav,None,1000,34,3352163,322,279.285
E,6,3074152,vowelstep7.wav,None,1000,34,3354164,322,281.285
E,6,3074152,silence.wav,None,1000,34,3356164,322,283.285
E,6,3074152,sinestep5.wav,None,1000,34,3358164,332,285.285
E,6,3074152,silence.wav,None,1000,34,3360164,333,287.285
E,6,3074152,silence.wav,None,1000,34,3362163,333,289.285
E,6,3074152,vowelstep5.wav,None,1000,34,3364163,312,291.285
E,6,3074152,vowelstep5.wav,None,1000,34,3366163,323,293.285
E,6,3074152,silence.wav,None,1000,34,3368163,322,295.285
E,6,3074152,vowelstep5.wav,None,1000,34,3370163,332,297.285
E,6,3074152,vowelstep7_catch.wav,1,276,34,3372164,332,299.285
E,6,3074152,vowelstep7_catch.wav,1,181,34,3374164,1054,301.285
E,6,3074152,vowelstep5.wav,None,1000,34,3376164,1149,303.285
E,6,3074152,sinestep1.wav,None,1000,34,3378164,341,305.285
E,6,3074152,vowelstep3.wav,None,1000,34,3380164,318,307.285
E,6,3074152,vowelstep5_catch.wav,1,164,34,3382164,321,309.285
E,6,3074152,vowelstep7.wav,None,1000,34,3384164,1152,311.285
E,6,3074152,vowelstep5.wav,None,1000,34,3386163,328,313.285
E,6,3074152,vowelstep7.wav,None,1000,34,3388163,330,315.285
E,6,3074152,vowelstep1.wav,None,1000,34,3390164,332,317.285
E,6,3074152,vowelstep3_catch.wav,1,135,34,3392164,310,319.285
A,7,3448175,sinestep5_catch.wav,1,473,34,3448181,0,1.285
A,7,3448175,vowelstep1.wav,None,1000,34,3450181,866,3.285
A,7,3448175,vowelstep3.wav,None,1000,34,3452181,341,5.285
A,7,3448175,sinestep1.wav,None,1000,34,3454181,340,7.285
A,7,3448175,sinestep5_catch.wav,1,193,34,3456181,322,9.285
A,7,3448175,sinestep7.wav,None,1000,34,3458181,1137,11.285
A,7,3448175,sinestep3.wav,None,1000,34,3460182,328,13.285
A,7,3448175,silence.wav,None,1000,34,3462182,330,15.285
A,7,3448175,vowelstep7.wav,None,1000,34,3464182,339,17.285
A,7,3448175,sinestep7.wav,None,1000,34,3466182,338,19.285
A,7,3448175,vowelstep5_catch.wav,1,269,34,3468182,339,21.285
A,7,3448175,sinestep7.wav,None,1000,34,3470182,1068,23.285
A,7,3448175,sinestep3.wav,None,1000,34,3472181,328,25.285
A,7,3448175,silence.wav,None,1000,34,3474181,326,27.285
A,7,3448175,sinestep3.wav,None,1000,34,3476182,326,29.285
A,7,3448175,sinestep5_catch.wav,1,374,34,3478182,338,31.285
A,7,3448175,sinestep1.wav,None,1000,34,3480182,964,33.285
A,7,3448175,sinestep1.wav,None,1000,34,3482182,337,35.285
A,7,3448175,sinestep5.wav,None,1000,34,3484182,337,37.285
A,7,3448175,vowelstep3.wav,None,1000,34,3486182,318,39.285
A,7,3448175,vowelstep5.wav,None,1000,34,3488182,327,41.285
A,7,3448175,vowelstep3.wav,None,1000,34,3490182,327,43.285
A,7,3448175,vowelstep1.wav,None,1000,34,3492182,328,45.285
A,7,3448175,vowelstep3.wav,None,1000,34,3494182,336,47.285
A,7,3448175,sinestep3.wav,None,1000,34,3496182,337,49.285
A,7,3448175,sinestep7.wav,None,1000,34,3498182,337,51.285
A,7,3448175,sinestep5.wav,None,1000,34,3500182,318,53.285
A,7,3448175,vowelstep7_catch.wav,1,234,34,3502182,348,55.285
A,7,3448175,silence.wav,None,1000,34,3504182,1095,57.285
A,7,3448175,vowelstep3.wav,None,1000,34,3506182,329,59.285
A,7,3448175,vowelstep1.wav,None,1000,34,3508182,330,61.285
A,7,3448175,silence.wav,None,1000,34,3510182,339,63.285
A,7,3448175,sinestep3.wav,None,1000,34,3512183,340,65.285
A,7,3448175,sinestep7.wav,None,1000,34,3514183,349,67.285
A,7,3448175,sinestep5.wav,None,1000,34,3516183,317,69.285
A,7,3448175,sinestep5.wav,None,1000,34,3518182,327,71.285
A,7,3448175,sinestep7.wav,None,1000,34,3520182,328,73.285
A,7,3448175,sinestep1.wav,None,1000,34,3522182,328,75.285
A,7,3448175,sinestep5.wav,None,1000,34,3524182,338,77.285
A,7,3448175,vowelstep1.wav,None,1000,34,3526182,337,79.285
A,7,3448175,sinestep1.wav,None,1000,34,3528182,337,81.285
A,7,3448175,vowelstep5.wav,None,1000,34,3530183,347,83.285
A,7,3448175,sinestep1.wav,None,1000,34,3532183,327,85.285
A,7,3448175,silence.wav,None,1000,34,3534183,327,87.285
A,7,3448175,vowelstep1.wav,None,1000,34,3536183,327,89.285
A,7,3448175,sinestep3.wav,None,1000,34,3538183,337,91.285
A,7,3448175,vowelstep5.wav,None,1000,34,3540182,336,93.285
A,7,3448175,vowelstep5.wav,None,1000,34,3542182,337,95.285
A,7,3448175,vowelstep5.wav,None,1000,34,3544182,346,97.285
A,7,3448175,vowelstep7.wav,None,1000,34,3546183,326,99.285
A,7,3448175,vowelstep3.wav,None,1000,34,3548183,326,101.285
A,7,3448175,sinestep1.wav,None,1000,34,3550183,335,103.285
A,7,3448175,sinestep1.wav,None,1000,34,3552183,335,105.285
A,7,3448175,vowelstep7.wav,None,1000,34,3554183,335,107.285
A,7,3448175,vowelstep1.wav,None,1000,34,3556183,337,109.285
A,7,3448175,vowelstep7.wav,None,1000,34,3558183,346,111.285
A,7,3448175,silence.wav,None,1000,34,3560183,326,113.285
A,7,3448175,sinestep1.wav,None,1000,34,3562183,326,115.285
A,7,3448175,vowelstep1.wav,None,1000,34,3564183,327,117.285
A,7,3448175,silence.wav,None,1000,34,3566183,336,119.285
A,7,3448175,vowelstep1.wav,None,1000,34,3568183,337,121.285
A,7,3448175,vowelstep3.wav,None,1000,34,3570183,346,123.285
A,7,3448175,vowelstep1.wav,None,1000,34,3572183,347,125.285
A,7,3448175,sinestep7.wav,None,1000,34,3574183,327,127.285
A,7,3448175,silence.wav,None,1000,34,3576183,327,129.285
A,7,3448175,vowelstep1.wav,None,1000,34,3578183,328,131.285
A,7,3448175,silence.wav,None,1000,34,3580183,338,133.285
A,7,3448175,sinestep7.wav,None,1000,34,3582184,338,135.285
A,7,3448175,vowelstep5.wav,None,1000,34,3584184,337,137.285
A,7,3448175,sinestep7.wav,None,1000,34,3586183,346,139.285
A,7,3448175,sinestep3.wav,None,1000,34,3588183,326,141.285
A,7,3448175,vowelstep5.wav,None,1000,34,3590183,326,143.285
A,7,3448175,silence.wav,None,1000,34,3592183,325,145.285
A,7,3448175,sinestep3.wav,None,1000,34,3594183,335,147.285
A,7,3448175,sinestep5.wav,None,1000,34,3596183,336,149.285
A,7,3448175,sinestep3.wav,None,1000,34,3598183,335,151.285
A,7,3448175,vowelstep3.wav,None,1000,34,3600184,335,153.285
A,7,3448175,sinestep3.wav,None,1000,34,3602184,324,155.285
A,7,3448175,vowelstep7_catch.wav,1,217,34,3604184,325,157.285
A,7,3448175,vowelstep7.wav,None,1000,34,3606184,1105,159.285
A,7,3448175,vowelstep5.wav,None,1000,34,3608184,335,161.285
A,7,3448175,sinestep5.wav,None,1000,34,3610183,335,163.285
A,7,3448175,silence.wav,None,1000,34,3612183,335,165.285
A,7,3448175,sinestep5.wav,None,1000,34,3614183,315,167.285
A,7,3448175,vowelstep5_catch.wav,1,254,34,3616184,325,169.285
A,7,3448175,silence.wav,None,1000,34,3618184,1071,171.285
A,7,3448175,sinestep7.wav,None,1000,34,3620184,326,173.285
A,7,3448175,sinestep5.wav,None,1000,34,3622184,334,175.285
A,7,3448175,sinestep7.wav,None,1000,34,3624184,333,177.285
A,7,3448175,vowelstep3.wav,None,1000,34,3626184,333,179.285
A,7,3448175,sinestep5.wav,None,1000,34,3628184,333,181.285
A,7,3448175,vowelstep1.wav,None,1000,34,3630184,323,183.285
A,7,3448175,vowelstep5.wav,None,1000,34,3632184,323,185.285
A,7,3448175,sinestep5.wav,None,1000,34,3634184,323,187.285
A,7,3448175,vowelstep1.wav,None,1000,34,3636184,322,189.285
A,7,3448175,silence.wav,None,1000,34,3638184,331,191.285
A,7,3448175,sinestep1.wav,None,1000,34,3640184,333,193.285
A,7,3448175,vowelstep5.wav,None,1000,34,3642184,342,195.285
A,7,3448175,sinestep3.wav,None,1000,34,3644184,342,197.285
A,7,3448175,silence.wav,None,1000,34,3646184,322,199.285
A,7,3448175,vowelstep3.wav,None,1000,34,3648184,321,201.285
A,7,3448175,vowelstep3_catch.wav,1,338,34,3650184,322,203.285
A,7,3448175,vowelstep5.wav,None,1000,34,3652185,993,205.285
A,7,3448175,vowelstep1_catch.wav,1,280,34,3654185,330,207.285
A,7,3448175,silence.wav,None,1000,34,3656184,1050,209.285
A,7,3448175,sinestep3.wav,None,1000,34,3658184,311,211.285
A,7,3448175,vowelstep5.wav,None,1000,34,3660184,320,213.285
A,7,3448175,silence.wav,None,1000,34,3662184,320,215.285
A,7,3448175,sinestep5.wav,None,1000,34,3664184,319,217.285
A,7,3448175,vowelstep7.wav,None,1000,34,3666184,331,219.285
A,7,3448175,silence.wav,None,1000,34,3668184,330,221.285
A,7,3448175,vowelstep3.wav,None,1000,34,3670185,330,223.285
A,7,3448175,sinestep7.wav,None,1000,34,3672185,340,225.285
A,7,3448175,silence.wav,None,1000,34,3674185,320,227.285
A,7,3448175,vowelstep3.wav,None,1000,34,3676185,320,229.285
A,7,3448175,vowelstep5.wav,None,1000,34,3678185,319,231.285
A,7,3448175,vowelstep7.wav,None,1000,34,3680184,330,233.285
A,7,3448175,vowelstep3.wav,None,1000,34,3682184,330,235.285
A,7,3448175,vowelstep5.wav,None,1000,34,3684184,329,237.285
A,7,3448175,sinestep1_catch.wav,1,293,34,3686185,310,239.285
A,7,3448175,sinestep3.wav,None,1000,34,3688185,1016,241.285
A,7,3448175,sinestep1.wav,None,1000,34,3690185,318,243.285
A,7,3448175,sinestep3_catch.wav,1,756,34,3692185,317,245.285
A,7,3448175,sinestep7.wav,None,1000,34,3694185,571,247.285
A,7,3448175,vowelstep1.wav,None,1000,34,3696185,328,249.285
A,7,3448175,sinestep3.wav,None,1000,34,3698185,329,251.285
A,7,3448175,vowelstep7.wav,None,1000,34,3700185,339,253.285
A,7,3448175,silence.wav,None,1000,34,3702184,319,255.285
A,7,3448175,sinestep1.wav,None,1000,34,3704185,317,257.285
A,7,3448175,silence.wav,None,1000,34,3706185,318,259.285
A,7,3448175,vowelstep5.wav,None,1000,34,3708185,328,261.285
A,7,3448175,sinestep5_catch.wav,1,228,34,3710185,326,263.285
A,7,3448175,vowelstep7.wav,None,1000,34,3712185,1098,265.285
A,7,3448175,sinestep3.wav,None,1000,34,3714185,337,267.285
A,7,3448175,vowelstep1.wav,None,1000,34,3716185,318,269.285
A,7,3448175,vowelstep3.wav,None,1000,34,3718185,318,271.285
A,7,3448175,sinestep7_catch.wav,1,140,34,3720185,317,273.285
A,7,3448175,silence.wav,None,1000,34,3722186,1187,275.285
A,7,3448175,vowelstep7.wav,None,1000,34,3724186,325,277.285
A,7,3448175,sinestep7.wav,None,1000,34,3726185,326,279.285
A,7,3448175,sinestep1.wav,None,1000,34,3728185,325,281.285
A,7,3448175,vowelstep7.wav,None,1000,34,3730185,316,283.285
A,7,3448175,sinestep5.wav,None,1000,34,3732185,337,285.285
A,7,3448175,sinestep5.wav,None,1000,34,3734185,347,287.285
A,7,3448175,sinestep7_catch.wav,1,266,34,3736185,326,289.285
A,7,3448175,sinestep5.wav,None,1000,34,3738185,1061,291.285
A,7,3448175,silence.wav,None,1000,34,3740186,324,293.285
A,7,3448175,vowelstep3.wav,None,1000,34,3742186,325,295.285
A,7,3448175,silence.wav,None,1000,34,3744186,335,297.285
A,7,3448175,vowelstep1.wav,None,1000,34,3746186,315,299.285
A,7,3448175,sinestep1.wav,None,1000,34,3748185,315,301.285
A,7,3448175,sinestep7.wav,None,1000,34,3750185,315,303.285
A,7,3448175,vowelstep7.wav,None,1000,34,3752185,325,305.285
A,7,3448175,sinestep1_catch.wav,1,177,34,3754185,325,307.285
A,7,3448175,silence.wav,None,1000,34,3756186,1146,309.285
A,7,3448175,silence.wav,None,1000,34,3758186,333,311.285
A,7,3448175,vowelstep7.wav,None,1000,34,3760186,334,313.285
A,7,3448175,sinestep1.wav,None,1000,34,3762186,334,315.285
A,7,3448175,vowelstep7.wav,None,1000,34,3764186,344,317.285
A,7,3448175,vowelstep7.wav,None,1000,34,3766186,324,319.285
G,8,3823148,vowelstep3.wav,None,1000,34,3823153,0,1.285
G,8,3823148,vowelstep3.wav,None,1000,34,3825153,345,3.285
G,8,3823148,vowelstep7.wav,None,1000,34,3827154,326,5.285
G,8,3823148,vowelstep3.wav,None,1000,34,3829154,323,7.285
G,8,3823148,sinestep5.wav,None,1000,34,3831154,323,9.285
G,8,3823148,sinestep1_catch.wav,1,236,34,3833153,333,11.285
G,8,3823148,silence.wav,None,1000,34,3835153,1096,13.285
G,8,3823148,silence.wav,None,1000,34,3837153,333,15.285
G,8,3823148,vowelstep7.wav,None,1000,34,3839153,312,17.285
G,8,3823148,vowelstep1.wav,None,1000,34,3841153,324,19.285
G,8,3823148,silence.wav,None,1000,34,3843153,323,21.285
G,8,3823148,sinestep1.wav,None,1000,34,3845154,322,23.285
G,8,3823148,vowelstep7.wav,None,1000,34,3847154,332,25.285
G,8,3823148,sinestep5.wav,None,1000,34,3849154,333,27.285
G,8,3823148,sinestep5.wav,None,1000,34,3851154,333,29.285
G,8,3823148,sinestep3.wav,None,1000,34,3853154,322,31.285
G,8,3823148,vowelstep3.wav,None,1000,34,3855154,323,33.285
G,8,3823148,silence.wav,None,1000,34,3857153,323,35.285
G,8,3823148,vowelstep1.wav,None,1000,34,3859153,322,37.285
G,8,3823148,sinestep7.wav,None,1000,34,3861154,321,39.285
G,8,3823148,vowelstep5.wav,None,1000,34,3863154,332,41.285
G,8,3823148,vowelstep3.wav,None,1000,34,3865154,331,43.285
G,8,3823148,sinestep1.wav,None,1000,34,3867154,311,45.285
G,8,3823148,sinestep7.wav,None,1000,34,3869154,321,47.285
G,8,3823148,sinestep1.wav,None,1000,34,3871154,320,49.285
G,8,3823148,sinestep5.wav,None,1000,34,3873154,320,51.285
G,8,3823148,vowelstep1.wav,None,1000,34,3875154,331,53.285
G,8,3823148,silence.wav,None,1000,34,3877154,331,55.285
G,8,3823148,sinestep5.wav,None,1000,34,3879155,330,57.285
G,8,3823148,vowelstep1.wav,None,1000,34,3881154,341,59.285
G,8,3823148,vowelstep3.wav,None,1000,34,3883154,321,61.285
G,8,3823148,sinestep3.wav,None,1000,34,3885154,340,63.285
G,8,3823148,sinestep1.wav,None,1000,34,3887154,350,65.285
G,8,3823148,vowelstep5.wav,None,1000,34,3889154,318,67.285
G,8,3823148,vowelstep3.wav,None,1000,34,3891154,326,69.285
G,8,3823148,vowelstep5.wav,None,1000,34,3893154,331,71.285
G,8,3823148,vowelstep7.wav,None,1000,34,3895154,341,73.285
G,8,3823148,vowelstep5.wav,None,1000,34,3897155,344,75.285
G,8,3823148,vowelstep5.wav,None,1000,34,3899155,319,77.285
G,8,3823148,sinestep3.wav,None,1000,34,3901155,343,79.285
G,8,3823148,sinestep3_catch.wav,1,261,34,3903154,321,81.285
G,8,3823148,sinestep5_catch.wav,1,215,34,3905154,1069,83.285
G,8,3823148,sinestep7.wav,None,1000,34,3907154,1115,85.285
G,8,3823148,sinestep7_catch.wav,1,230,34,3909154,341,87.285
G,8,3823148,sinestep7.wav,None,1000,34,3911154,1109,89.285
G,8,3823148,vowelstep1.wav,None,1000,34,3913154,339,91.285
G,8,3823148,vowelstep7.wav,None,1000,34,3915155,341,93.285
G,8,3823148,vowelstep3.wav,None,1000,34,3917155,330,95.285
G,8,3823148,sinestep3.wav,None,1000,34,3919155,332,97.285
G,8,3823148,sinestep1.wav,None,1000,34,3921155,332,99.285
G,8,3823148,sinestep1.wav,None,1000,34,3923155,328,101.285
G,8,3823148,sinestep5.wav,None,1000,34,3925155,340,103.285
G,8,3823148,vowelstep7.wav,None,1000,34,3927154,339,105.285
G,8,3823148,silence.wav,None,1000,34,3929154,352,107.285
G,8,3823148,sinestep3.wav,None,1000,34,3931155,320,109.285
G,8,3823148,vowelstep1.wav,None,1000,34,3933155,332,111.285
G,8,3823148,sinestep3.wav,None,1000,34,3935155,331,113.285
G,8,3823148,sinestep3.wav,None,1000,34,3937155,331,115.285
G,8,3823148,sinestep7.wav,None,1000,34,3939155,337,117.285
G,8,3823148,silence.wav,None,1000,34,3941155,336,119.285
G,8,3823148,vowelstep5.wav,None,1000,34,3943155,339,121.285
G,8,3823148,sinestep1_catch.wav,1,226,34,3945155,351,123.285
G,8,3823148,silence.wav,None,1000,34,3947155,1103,125.285
G,8,3823148,sinestep5.wav,None,1000,34,3949155,331,127.285
G,8,3823148,sinestep7.wav,None,1000,34,3951155,330,129.285
G,8,3823148,sinestep3.wav,None,1000,34,3953155,341,131.285
G,8,3823148,sinestep3.wav,None,1000,34,3955155,337,133.285
G,8,3823148,vowelstep5.wav,None,1000,34,3957155,341,135.285
G,8,3823148,sinestep3.wav,None,1000,34,3959155,349,137.285
G,8,3823148,sinestep3_catch.wav,1,257,34,3961155,331,139.285
G,8,3823148,vowelstep1.wav,None,1000,34,3963155,1072,141.285
G,8,3823148,vowelstep1.wav,None,1000,34,3965155,331,143.285
G,8,3823148,sinestep5.wav,None,1000,34,3967156,340,145.285
G,8,3823148,silence.wav,None,1000,34,3969156,339,147.285
G,8,3823148,sinestep3.wav,None,1000,34,3971156,333,149.285
G,8,3823148,silence.wav,None,1000,34,3973155,350,151.285
G,8,3823148,vowelstep3.wav,None,1000,34,3975155,327,153.285
G,8,3823148,sinestep5.wav,None,1000,34,3977155,330,155.285
G,8,3823148,vowelstep7.wav,None,1000,34,3979155,328,157.285
G,8,3823148,silence.wav,None,1000,34,3981155,339,159.285
G,8,3823148,sinestep5_catch.wav,1,262,34,3983155,339,161.285
G,8,3823148,vowelstep5.wav,None,1000,34,3985156,1059,163.285
G,8,3823148,silence.wav,None,1000,34,3987156,345,165.285
G,8,3823148,vowelstep7.wav,None,1000,34,3989156,329,167.285
G,8,3823148,vowelstep1.wav,None,1000,34,3991156,327,169.285
G,8,3823148,vowelstep1.wav,None,1000,34,3993156,328,171.285
G,8,3823148,vowelstep1.wav,None,1000,34,3995155,330,173.285
G,8,3823148,sinestep5.wav,None,1000,34,3997155,338,175.285
G,8,3823148,vowelstep3.wav,None,1000,34,3999155,338,177.285
G,8,3823148,sinestep1.wav,None,1000,34,4001156,317,179.285
G,8,3823148,vowelstep1.wav,None,1000,34,4003156,316,181.285
G,8,3823148,sinestep1.wav,None,1000,34,4005156,327,183.285
G,8,3823148,sinestep7.wav,None,1000,34,4007156,327,185.285
G,8,3823148,sinestep7.wav,None,1000,34,4009156,338,187.285
G,8,3823148,sinestep3.wav,None,1000,34,4011156,334,189.285
G,8,3823148,sinestep5.wav,None,1000,34,4013156,337,191.285
G,8,3823148,silence.wav,None,1000,34,4015156,335,193.285
G,8,3823148,sinestep7_catch.wav,1,156,34,4017156,326,195.285
G,8,3823148,vowelstep7_catch.wav,1,629,34,4019156,1167,197.285
G,8,3823148,sinestep7.wav,None,1000,34,4021156,694,199.285
G,8,3823148,silence.wav,None,1000,34,4023156,333,201.285
G,8,3823148,sinestep7.wav,None,1000,34,4025156,336,203.285
G,8,3823148,sinestep3.wav,None,1000,34,4027156,336,205.285
G,8,3823148,vowelstep7.wav,None,1000,34,4029156,346,207.285
G,8,3823148,sinestep1.wav,None,1000,34,4031156,326,209.285
G,8,3823148,silence.wav,None,1000,34,4033156,327,211.285
G,8,3823148,silence.wav,None,1000,34,4035156,327,213.285
G,8,3823148,vowelstep7.wav,None,1000,34,4037157,332,215.285
G,8,3823148,vowelstep5.wav,None,1000,34,4039157,335,217.285
G,8,3823148,sinestep7.wav,None,1000,34,4041157,335,219.285
G,8,3823148,vowelstep5.wav,None,1000,34,4043156,335,221.285
G,8,3823148,vowelstep5_catch.wav,1,400,34,4045156,325,223.285
G,8,3823148,vowelstep7.wav,None,1000,34,4047156,925,225.285
G,8,3823148,silence.wav,None,1000,34,4049156,326,227.285
G,8,3823148,silence.wav,None,1000,34,4051156,325,229.285
G,8,3823148,sinestep1.wav,None,1000,34,4053157,335,231.285
G,8,3823148,silence.wav,None,1000,34,4055157,334,233.285
G,8,3823148,vowelstep7.wav,None,1000,34,4057157,334,235.285
G,8,3823148,vowelstep5.wav,None,1000,34,4059157,324,237.285
G,8,3823148,vowelstep3.wav,None,1000,34,4061157,325,239.285
G,8,3823148,vowelstep3_catch.wav,1,383,34,4063157,324,241.285
G,8,3823148,sinestep1.wav,None,1000,34,4065156,937,243.285
G,8,3823148,silence.wav,None,1000,34,4067156,331,245.285
G,8,3823148,sinestep7.wav,None,1001,34,4069156,332,247.285
G,8,3823148,sinestep1.wav,None,1000,34,4071157,333,249.285
G,8,3823148,sinestep3.wav,None,1000,34,4073157,311,251.285
G,8,3823148,vowelstep3.wav,None,1000,34,4075157,323,253.285
G,8,3823148,vowelstep1_catch.wav,1,194,34,4077157,323,255.285
G,8,3823148,sinestep7.wav,None,1000,34,4079157,1126,257.285
G,8,3823148,silence.wav,None,1000,34,4081157,333,259.285
G,8,3823148,sinestep5.wav,None,1000,34,4083157,329,261.285
G,8,3823148,sinestep5.wav,None,1000,34,4085157,331,263.285
G,8,3823148,vowelstep5.wav,None,1000,34,4087157,341,265.285
G,8,3823148,sinestep5.wav,None,1000,34,4089157,322,267.285
G,8,3823148,sinestep7.wav,None,1000,34,4091157,320,269.285
G,8,3823148,silence.wav,None,1000,34,4093157,323,271.285
G,8,3823148,vowelstep7_catch.wav,1,305,34,4095157,332,273.285
G,8,3823148,vowelstep5.wav,None,1000,34,4097157,1025,275.285
G,8,3823148,silence.wav,None,1000,34,4099157,339,277.285
G,8,3823148,sinestep3.wav,None,1000,34,4101157,311,279.285
G,8,3823148,vowelstep5.wav,None,1000,34,4103157,312,281.285
G,8,3823148,silence.wav,None,1000,34,4105157,323,283.285
G,8,3823148,vowelstep1.wav,None,1000,34,4107158,319,285.285
G,8,3823148,sinestep1.wav,None,1000,34,4109158,331,287.285
G,8,3823148,vowelstep3.wav,None,1000,34,4111158,331,289.285
G,8,3823148,vowelstep7.wav,None,1000,34,4113157,331,291.285
G,8,3823148,vowelstep7.wav,None,1000,34,4115157,341,293.285
G,8,3823148,sinestep1.wav,None,1000,34,4117157,321,295.285
G,8,3823148,vowelstep5.wav,None,1000,34,4119157,341,297.285
G,8,3823148,silence.wav,None,1000,34,4121157,351,299.285
G,8,3823148,sinestep1.wav,None,1000,34,4123158,330,301.285
G,8,3823148,vowelstep7.wav,None,1000,34,4125158,330,303.285
G,8,3823148,vowelstep5_catch.wav,1,284,34,4127158,326,305.285
G,8,3823148,vowelstep3.wav,None,1000,34,4129158,1056,307.285
G,8,3823148,vowelstep3_catch.wav,1,358,34,4131158,336,309.285
G,8,3823148,sinestep7.wav,None,1000,34,4133158,961,311.285
G,8,3823148,sinestep5.wav,None,1000,34,4135157,315,313.285
G,8,3823148,vowelstep1.wav,None,1000,34,4137157,330,315.285
G,8,3823148,vowelstep3.wav,None,1000,34,4139157,329,317.285
G,8,3823148,vowelstep1.wav,None,1000,34,4141158,330,319.285
D,9,4198523,sinestep5.wav,None,1000,34,4198542,0,1.285
D,9,4198523,vowelstep1_catch.wav,1,268,34,4200542,340,3.285
D,9,4198523,sinestep7.wav,None,1000,34,4202542,1068,5.285
D,9,4198523,vowelstep3.wav,None,1000,34,4204542,317,7.285
D,9,4198523,vowelstep3_catch.wav,1,305,34,4206542,319,9.285
D,9,4198523,vowelstep5_catch.wav,1,286,34,4208542,1014,11.285
D,9,4198523,sinestep7.wav,None,1000,34,4210526,1044,13.285
D,9,4198523,silence.wav,None,1000,34,4212542,330,15.285
D,9,4198523,vowelstep7_catch.wav,1,233,34,4214542,330,17.285
D,9,4198523,vowelstep7.wav,None,1000,34,4216542,1106,19.285
D,9,4198523,vowelstep3.wav,None,1000,34,4218542,316,21.285
D,9,4198523,vowelstep7_catch.wav,1,135,34,4220542,320,23.285
D,9,4198523,vowelstep5.wav,None,1000,34,4222542,1179,25.285
D,9,4198523,sinestep7.wav,None,1000,34,4224542,330,27.285
D,9,4198523,silence.wav,None,1000,34,4226542,328,29.285
D,9,4198523,vowelstep1.wav,None,1000,34,4228526,329,31.285
D,9,4198523,vowelstep1.wav,None,1000,34,4230543,337,33.285
D,9,4198523,vowelstep7.wav,None,1000,34,4232543,319,35.285
D,9,4198523,vowelstep3.wav,None,1000,34,4234542,318,37.285
D,9,4198523,sinestep3.wav,None,1000,34,4236542,315,39.285
D,9,4198523,sinestep1.wav,None,1000,34,4238542,329,41.285
D,9,4198523,vowelstep1.wav,None,1000,34,4240526,328,43.285
D,9,4198523,vowelstep1.wav,None,1000,34,4242542,330,45.285
D,9,4198523,sinestep7.wav,None,1000,34,4244542,339,47.285
D,9,4198523,sinestep3.wav,None,1000,34,4246526,320,49.285
D,9,4198523,vowelstep5_catch.wav,1,245,34,4248526,338,51.285
D,9,4198523,sinestep7.wav,None,1000,34,4250543,1099,53.285
D,9,4198523,vowelstep5.wav,None,1000,34,4252543,325,55.285
D,9,4198523,sinestep3.wav,None,1000,34,4254543,325,57.285
D,9,4198523,sinestep7.wav,None,1000,34,4256526,327,59.285
D,9,4198523,vowelstep3.wav,None,1000,34,4258526,326,61.285
D,9,4198523,vowelstep3.wav,None,1000,34,4260542,337,63.285
D,9,4198523,vowelstep3_catch.wav,1,284,34,4262542,317,65.285
D,9,4198523,silence.wav,None,1000,34,4264527,1031,67.285
D,9,4198523,vowelstep7.wav,None,1000,34,4266526,347,69.285
D,9,4198523,silence.wav,None,1000,34,4268543,324,71.285
D,9,4198523,sinestep1.wav,None,1000,34,4270543,326,73.285
D,9,4198523,vowelstep5.wav,None,1000,34,4272526,337,75.285
D,9,4198523,vowelstep1.wav,None,1000,34,4274526,336,77.285
D,9,4198523,sinestep7.wav,None,1000,34,4276526,337,79.285
D,9,4198523,vowelstep1.wav,None,1000,34,4278543,346,81.285
D,9,4198523,sinestep7.wav,None,1000,34,4280527,316,83.285
D,9,4198523,vowelstep7.wav,None,1000,34,4282527,342,85.285
D,9,4198523,vowelstep5.wav,None,1000,34,4284527,345,87.285
D,9,4198523,vowelstep1.wav,None,1000,34,4286543,321,89.285
D,9,4198523,sinestep5.wav,None,1000,34,4288527,315,91.285
D,9,4198523,sinestep5.wav,None,1000,34,4290526,334,93.285
D,9,4198523,vowelstep3.wav,None,1000,34,4292526,345,95.285
D,9,4198523,silence.wav,None,1000,34,4294526,345,97.285
D,9,4198523,sinestep1.wav,None,1000,34,4296543,345,99.285
D,9,4198523,sinestep1.wav,None,1000,34,4298527,325,101.285
D,9,4198523,sinestep3.wav,None,1000,34,4300527,329,103.285
D,9,4198523,vowelstep1.wav,None,1000,34,4302527,335,105.285
D,9,4198523,sinestep7.wav,None,1000,34,4304527,296,107.285
D,9,4198523,vowelstep3.wav,None,1000,34,4306527,335,109.285
D,9,4198523,silence.wav,None,1000,34,4308527,341,111.285
D,9,4198523,vowelstep5.wav,None,1000,34,4310527,328,113.285
D,9,4198523,vowelstep1.wav,None,1000,34,4312526,354,115.285
D,9,4198523,vowelstep1_catch.wav,1,334,34,4314526,350,117.285
D,9,4198523,vowelstep7.wav,None,1000,34,4316527,997,119.285
D,9,4198523,sinestep5.wav,None,1000,34,4318527,334,121.285
D,9,4198523,vowelstep7.wav,None,1000,34,4320527,331,123.285
D,9,4198523,sinestep1.wav,None,1000,34,4322527,344,125.285
D,9,4198523,sinestep1.wav,None,1000,34,4324527,338,127.285
D,9,4198523,vowelstep3.wav,None,1000,34,4326527,340,129.285
D,9,4198523,sinestep1.wav,None,1000,34,4328527,322,131.285
D,9,4198523,silence.wav,None,1000,34,4330527,332,133.285
D,9,4198523,sinestep3.wav,None,1000,34,4332527,332,135.285
D,9,4198523,silence.wav,None,1000,34,4334528,331,137.285
D,9,4198523,vowelstep3.wav,None,1000,34,4336527,341,139.285
D,9,4198523,vowelstep5.wav,None,1000,34,4338527,342,141.285
D,9,4198523,silence.wav,None,1000,34,4340527,341,143.285
D,9,4198523,sinestep5.wav,None,1000,34,4342527,351,145.285
D,9,4198523,sinestep5.wav,None,1000,34,4344527,331,147.285
D,9,4198523,sinestep1.wav,None,1000,34,4346527,327,149.285
D,9,4198523,vowelstep5.wav,None,1000,34,4348527,331,151.285
D,9,4198523,vowelstep5.wav,None,1000,34,4350528,327,153.285
D,9,4198523,sinestep1_catch.wav,1,248,34,4352528,341,155.285
D,9,4198523,sinestep5.wav,None,1000,34,4354528,1091,157.285
D,9,4198523,vowelstep3.wav,None,1000,34,4356528,321,159.285
D,9,4198523,vowelstep7.wav,None,1000,34,4358527,330,161.285
D,9,4198523,vowelstep3.wav,None,1000,34,4360527,331,163.285
D,9,4198523,sinestep3.wav,None,1000,34,4362527,327,165.285
D,9,4198523,sinestep1.wav,None,1000,34,4364527,341,167.285
D,9,4198523,silence.wav,None,1000,34,4366527,340,169.285
D,9,4198523,sinestep1.wav,None,1000,34,4368528,341,171.285
D,9,4198523,vowelstep1.wav,None,1000,34,4370528,340,173.285
D,9,4198523,vowelstep3.wav,None,1000,34,4372528,330,175.285
D,9,4198523,silence.wav,None,1000,34,4374528,330,177.285
D,9,4198523,sinestep7.wav,None,1000,34,4376528,330,179.285
D,9,4198523,silence.wav,None,1000,34,4378528,326,181.285
D,9,4198523,vowelstep7.wav,None,1000,34,4380528,339,183.285
D,9,4198523,sinestep3.wav,None,1000,34,4382527,338,185.285
D,9,4198523,vowelstep1.wav,None,1000,34,4384527,350,187.285
D,9,4198523,sinestep7.wav,None,1000,34,4386528,329,189.285
D,9,4198523,silence.wav,None,1000,34,4388528,329,191.285
D,9,4198523,sinestep1.wav,None,1000,34,4390528,328,193.285
D,9,4198523,sinestep3.wav,None,1000,34,4392528,338,195.285
D,9,4198523,sinestep5.wav,None,1000,34,4394528,339,197.285
D,9,4198523,vowelstep3.wav,None,1000,34,4396528,335,199.285
D,9,4198523,sinestep5.wav,None,1000,34,4398528,336,201.285
D,9,4198523,sinestep5.wav,None,1000,34,4400528,329,203.285
D,9,4198523,sinestep3.wav,None,1000,34,4402528,327,205.285
D,9,4198523,sinestep3.wav,None,1000,34,4404528,327,207.285
D,9,4198523,sinestep5.wav,None,1000,34,4406528,327,209.285
D,9,4198523,sinestep3_catch.wav,1,309,34,4408528,322,211.285
D,9,4198523,vowelstep7.wav,None,1000,34,4410528,1024,213.285
D,9,4198523,sinestep1.wav,None,1000,34,4412528,335,215.285
D,9,4198523,sinestep7.wav,None,1000,34,4414528,315,217.285
D,9,4198523,vowelstep1.wav,None,1000,34,4416528,329,219.285
D,9,4198523,sinestep5.wav,None,1000,34,4418528,326,221.285
D,9,4198523,silence.wav,None,1000,34,4420529,329,223.285
D,9,4198523,sinestep5_catch.wav,1,294,34,4422529,337,225.285
D,9,4198523,sinestep5.wav,None,1000,34,4424529,1042,227.285
D,9,4198523,silence.wav,None,1000,34,4426529,334,229.285
D,9,4198523,vowelstep7.wav,None,1000,34,4428528,316,231.285
D,9,4198523,sinestep3.wav,None,1000,34,4430528,327,233.285
D,9,4198523,vowelstep5.wav,None,1000,34,4432528,326,235.285
D,9,4198523,vowelstep7.wav,None,1000,34,4434528,326,237.285
D,9,4198523,vowelstep5.wav,None,1000,34,4436528,336,239.285
D,9,4198523,silence.wav,None,1000,34,4438529,337,241.285
D,9,4198523,silence.wav,None,1000,34,4440529,336,243.285
D,9,4198523,silence.wav,None,1000,34,4442529,321,245.285
D,9,4198523,sinestep7.wav,None,1000,34,4444529,325,247.285
D,9,4198523,sinestep5.wav,None,1000,34,4446529,327,249.285
D,9,4198523,sinestep7_catch.wav,1,272,34,4448529,324,251.285
D,9,4198523,vowelstep1.wav,None,1000,34,4450529,1064,253.285
D,9,4198523,vowelstep1.wav,None,1000,34,4452528,336,255.285
D,9,4198523,vowelstep3.wav,None,1000,34,4454528,345,257.285
D,9,4198523,silence.wav,None,1000,34,4456529,345,259.285
D,9,4198523,sinestep5.wav,None,1000,34,4458529,325,261.285
D,9,4198523,vowelstep7.wav,None,1000,34,4460529,320,263.285
D,9,4198523,vowelstep3.wav,None,1000,34,4462529,325,265.285
D,9,4198523,vowelstep7.wav,None,1000,34,4464529,333,267.285
D,9,4198523,vowelstep5.wav,None,1000,34,4466529,334,269.285
D,9,4198523,sinestep1.wav,None,1000,34,4468529,334,271.285
D,9,4198523,sinestep7.wav,None,1000,34,4470529,344,273.285
D,9,4198523,sinestep3.wav,None,1000,34,4472529,325,275.285
D,9,4198523,silence.wav,None,1000,34,4474529,320,277.285
D,9,4198523,sinestep7.wav,None,1000,34,4476529,322,279.285
D,9,4198523,vowelstep5.wav,None,1000,34,4478529,331,281.285
D,9,4198523,sinestep1.wav,None,1000,34,4480529,334,283.285
D,9,4198523,vowelstep1.wav,None,1000,34,4482529,334,285.285
D,9,4198523,sinestep1.wav,None,1000,34,4484529,343,287.285
D,9,4198523,vowelstep5.wav,None,1000,34,4486529,324,289.285
D,9,4198523,silence.wav,None,1000,34,4488529,324,291.285
D,9,4198523,sinestep3.wav,None,1000,34,4490530,320,293.285
D,9,4198523,vowelstep5.wav,None,1000,34,4492530,324,295.285
D,9,4198523,silence.wav,None,1000,34,4494530,327,297.285
D,9,4198523,sinestep3.wav,None,1000,34,4496530,333,299.285
D,9,4198523,vowelstep7.wav,None,1000,34,4498529,341,301.285
D,9,4198523,sinestep7_catch.wav,1,484,34,4500529,342,303.285
D,9,4198523,sinestep5_catch.wav,1,514,34,4502529,838,305.285
D,9,4198523,sinestep3.wav,None,1000,34,4504529,828,307.285
D,9,4198523,vowelstep5.wav,None,1000,34,4506529,329,309.285
D,9,4198523,silence.wav,None,1000,34,4508530,330,311.285
D,9,4198523,sinestep3_catch.wav,1,249,34,4510530,331,313.285
D,9,4198523,silence.wav,None,1000,34,4512530,1090,315.285
D,9,4198523,vowelstep7.wav,None,1000,34,4514530,342,317.285
D,9,4198523,silence.wav,None,1000,34,4516530,321,319.285