block,count_main_sequence,first_trial_timestamp,fname,response_catch_response,response_time_catch_response,subject_nr,time_stimulus,time_to_pad,timing
P,NA,212505,vowelstep1_catch.wav,2,563,25,212513,0,
P,NA,212505,sinestep7_catch.wav,2,400,25,214513,868,
P,NA,212505,vowelstep5_catch.wav,2,864,25,216513,1035,
P,NA,212505,sinestep7.wav,2,481,25,218513,582,
P,NA,212505,sinestep7.wav,None,1000,25,220513,964,
P,NA,212505,sinestep3.wav,None,1000,25,222512,447,
P,NA,212505,sinestep1.wav,None,1000,25,224512,456,
P,NA,212505,vowelstep7.wav,None,1000,25,226512,456,
P,NA,212505,vowelstep3.wav,None,1000,25,228513,456,
P,NA,212505,silence.wav,None,1000,25,230513,465,
P,NA,212505,sinestep1.wav,None,1000,25,232513,445,
P,NA,212505,vowelstep1.wav,None,1000,25,234513,445,
P,NA,212505,sinestep5.wav,None,1000,25,236513,445,
P,NA,212505,sinestep1.wav,None,1000,25,238513,455,
P,NA,212505,sinestep1.wav,None,1000,25,240513,455,
P,NA,212505,vowelstep1.wav,None,1000,25,242513,454,
P,NA,212505,silence.wav,None,1000,25,244514,465,
P,NA,212505,silence.wav,None,1000,25,246513,444,
P,NA,212505,silence.wav,None,1000,25,248513,444,
P,NA,212505,sinestep3_catch.wav,2,325,25,250513,444,
P,NA,212505,vowelstep7.wav,None,1000,25,252513,1126,
P,NA,212505,silence.wav,None,1000,25,254513,455,
P,NA,212505,vowelstep7.wav,None,1000,25,256513,454,
P,NA,212505,vowelstep3.wav,None,1000,25,258513,464,
P,NA,212505,silence.wav,None,1000,25,260513,445,
P,NA,212505,vowelstep1.wav,None,1000,25,262514,443,
P,NA,212505,sinestep3.wav,None,1000,25,264514,441,
P,NA,212505,vowelstep1.wav,None,1000,25,266514,453,
P,NA,212505,silence.wav,None,1000,25,268514,453,
P,NA,212505,sinestep7.wav,None,1000,25,270513,454,
P,NA,212505,sinestep5_catch.wav,2,275,25,272513,453,
P,NA,212505,silence.wav,None,1000,25,274513,1167,
P,NA,212505,sinestep7.wav,None,1000,25,276513,443,
P,NA,212505,sinestep5.wav,None,1000,25,278513,443,
P,NA,212505,sinestep3.wav,None,1000,25,280514,443,
P,NA,212505,sinestep1_catch.wav,2,246,25,282514,452,
P,NA,212505,vowelstep3_catch.wav,2,314,25,284514,1205,
P,NA,212505,vowelstep5_catch.wav,2,288,25,286514,1147,
P,NA,212505,vowelstep7.wav,None,1000,25,288514,1143,
P,NA,212505,silence.wav,None,1000,25,290514,443,
P,NA,212505,vowelstep7_catch.wav,2,297,25,292514,443,
P,NA,212505,vowelstep3.wav,None,1000,25,294513,1144,
P,NA,212505,silence.wav,None,1000,25,296513,452,
P,NA,212505,sinestep7_catch.wav,2,225,25,298514,452,
P,NA,212505,sinestep7.wav,None,1000,25,300514,1226,
P,NA,212505,vowelstep5.wav,None,1000,25,302514,461,
P,NA,212505,vowelstep3.wav,None,1000,25,304514,442,
P,NA,212505,sinestep5.wav,None,1000,25,306514,441,
P,NA,212505,sinestep5_catch.wav,2,147,25,308514,440,
P,NA,212505,sinestep3.wav,None,1000,25,310514,1302,
P,NA,212505,silence.wav,None,1000,25,312514,450,
P,NA,212505,vowelstep7.wav,None,1000,25,314515,459,
P,NA,212505,sinestep3_catch.wav,2,321,25,316515,428,
P,NA,212505,vowelstep5.wav,None,1000,25,318515,1117,
P,NA,212505,silence.wav,None,1000,25,320514,438,
P,NA,212505,sinestep1.wav,None,1000,25,322514,448,
P,NA,212505,vowelstep1.wav,None,1000,25,324514,448,
P,NA,212505,silence.wav,None,1000,25,326514,448,
P,NA,212505,silence.wav,None,1000,25,328514,448,
P,NA,212505,silence.wav,None,1000,25,330514,429,
P,NA,212505,sinestep1_catch.wav,2,329,25,332515,438,
P,NA,212505,sinestep1.wav,None,1000,25,334515,1108,
P,NA,212505,silence.wav,None,1000,25,336515,437,
P,NA,212505,vowelstep1_catch.wav,2,324,25,338515,448,
P,NA,212505,vowelstep5.wav,None,1000,25,340515,1123,
P,NA,212505,sinestep5.wav,None,1000,25,342515,445,
P,NA,212505,vowelstep3.wav,None,1000,25,344514,457,
P,NA,212505,silence.wav,None,1000,25,346514,437,
P,NA,212505,silence.wav,None,1000,25,348514,437,
P,NA,212505,sinestep7.wav,None,1000,25,350515,436,
P,NA,212505,vowelstep5.wav,None,1000,25,352515,446,
P,NA,212505,silence.wav,None,1000,25,354515,446,
P,NA,212505,vowelstep3_catch.wav,2,204,25,356515,446,
P,NA,212505,silence.wav,None,1000,25,358515,1222,
P,NA,212505,vowelstep5.wav,None,1000,25,360515,426,
P,NA,212505,vowelstep5_catch.wav,2,254,25,362515,436,
P,NA,212505,vowelstep7_catch.wav,2,479,25,364515,1183,
P,NA,212505,sinestep3.wav,None,1000,25,366515,967,
P,NA,212505,vowelstep5.wav,None,1000,25,368515,445,
P,NA,212505,vowelstep3.wav,None,1000,25,370515,446,
P,NA,212505,silence.wav,None,1000,25,372515,446,
P,NA,212505,sinestep3.wav,None,1000,25,374515,436,
P,NA,212505,silence.wav,None,1000,25,376515,436,
P,NA,212505,sinestep7_catch.wav,2,130,25,378515,436,
P,NA,212505,sinestep5_catch.wav,2,96,25,380515,1316,
P,NA,212505,sinestep5.wav,None,1000,25,382515,1349,
P,NA,212505,sinestep5.wav,None,1000,25,384516,446,
P,NA,212505,vowelstep7.wav,None,1000,25,386516,455,
P,NA,212505,sinestep3_catch.wav,2,281,25,388516,435,
P,NA,212505,vowelstep1.wav,None,1000,25,390516,1153,
E,0,809495,vowelstep7.wav,None,1000,25,809506,0,1.285
E,0,809495,sinestep3.wav,None,1000,25,811506,334,3.285
E,0,809495,sinestep5.wav,None,1000,25,813505,336,5.285
E,0,809495,sinestep1.wav,None,1000,25,815505,336,7.285
E,0,809495,sinestep5.wav,None,1000,25,817505,336,9.285
E,0,809495,silence.wav,None,1000,25,819505,348,11.285
E,0,809495,vowelstep1.wav,None,1000,25,821506,349,13.285
E,0,809495,vowelstep7.wav,None,1000,25,823506,348,15.285
E,0,809495,vowelstep1.wav,None,1000,25,825506,329,17.285
E,0,809495,sinestep1_catch.wav,2,93,25,827506,340,19.285
E,0,809495,vowelstep5.wav,None,1000,25,829506,1245,21.285
E,0,809495,sinestep5.wav,None,1000,25,831506,348,23.285
E,0,809495,vowelstep5.wav,None,1000,25,833506,348,25.285
E,0,809495,vowelstep3.wav,None,1000,25,835506,349,27.285
E,0,809495,sinestep1.wav,None,1000,25,837505,346,29.285
E,0,809495,vowelstep5.wav,None,1000,25,839506,339,31.285
E,0,809495,silence.wav,None,1000,25,841506,334,33.285
E,0,809495,silence.wav,None,1000,25,843506,337,35.285
E,0,809495,sinestep3.wav,None,1000,25,845506,337,37.285
E,0,809495,sinestep3.wav,None,1000,25,847506,348,39.285
E,0,809495,sinestep3.wav,None,1000,25,849506,347,41.285
E,0,809495,sinestep1.wav,None,1000,25,851506,357,43.285
E,0,809495,vowelstep1.wav,None,1000,25,853506,324,45.285
E,0,809495,sinestep1.wav,None,1000,25,855506,336,47.285
E,0,809495,vowelstep7.wav,None,1000,25,857507,336,49.285
E,0,809495,vowelstep5.wav,None,1000,25,859507,336,51.285
E,0,809495,sinestep7.wav,None,1000,25,861506,346,53.285
E,0,809495,sinestep1.wav,None,1000,25,863506,347,55.285
E,0,809495,vowelstep5.wav,None,1000,25,865506,347,57.285
E,0,809495,sinestep3.wav,None,1000,25,867506,332,59.285
E,0,809495,vowelstep1.wav,None,1000,25,869506,333,61.285
E,0,809495,vowelstep5.wav,None,1000,25,871506,337,63.285
E,0,809495,vowelstep3.wav,None,1000,25,873506,330,65.285
E,0,809495,sinestep1.wav,None,1000,25,875507,346,67.285
E,0,809495,vowelstep3.wav,None,1000,25,877507,342,69.285
E,0,809495,silence.wav,None,1000,25,879507,342,71.285
E,0,809495,vowelstep3.wav,None,1000,25,881507,351,73.285
E,0,809495,sinestep3_catch.wav,2,144,25,883507,336,75.285
E,0,809495,sinestep3.wav,None,1000,25,885506,1189,77.285
E,0,809495,vowelstep3.wav,None,1000,25,887506,335,79.285
E,0,809495,vowelstep7.wav,None,1000,25,889506,345,81.285
E,0,809495,silence.wav,None,1000,25,891507,345,83.285
E,0,809495,sinestep3.wav,None,1000,25,893507,345,85.285
E,0,809495,silence.wav,None,1000,25,895507,325,87.285
E,0,809495,sinestep1.wav,None,1000,25,897507,325,89.285
E,0,809495,sinestep5_catch.wav,2,103,25,899507,335,91.285
E,0,809495,vowelstep3.wav,None,1000,25,901507,1227,93.285
E,0,809495,sinestep5.wav,None,1000,25,903507,345,95.285
E,0,809495,vowelstep7.wav,None,1000,25,905507,343,97.285
E,0,809495,sinestep1.wav,None,1000,25,907507,342,99.285
E,0,809495,sinestep5.wav,None,1000,25,909507,346,101.285
E,0,809495,sinestep5.wav,None,1000,25,911507,333,103.285
E,0,809495,vowelstep7.wav,None,1000,25,913507,332,105.285
E,0,809495,vowelstep3.wav,None,1000,25,915507,334,107.285
E,0,809495,vowelstep7.wav,None,1000,25,917507,329,109.285
E,0,809495,sinestep5.wav,None,1000,25,919507,344,111.285
E,0,809495,vowelstep3.wav,None,1000,25,921507,341,113.285
E,0,809495,vowelstep7.wav,None,1000,25,923507,352,115.285
E,0,809495,sinestep3.wav,None,1000,25,925507,323,117.285
E,0,809495,vowelstep7.wav,None,1000,25,927508,333,119.285
E,0,809495,silence.wav,None,1000,25,929508,333,121.285
E,0,809495,silence.wav,None,1000,25,931508,343,123.285
E,0,809495,sinestep7.wav,None,1000,25,933507,342,125.285
E,0,809495,sinestep7_catch.wav,2,99,25,935507,339,127.285
E,0,809495,sinestep7.wav,None,1000,25,937507,1243,129.285
E,0,809495,silence.wav,None,1000,25,939507,327,131.285
E,0,809495,sinestep7_catch.wav,2,122,25,941507,328,133.285
E,0,809495,sinestep7.wav,None,1000,25,943507,1205,135.285
E,0,809495,sinestep5_catch.wav,2,51,25,945508,327,137.285
E,0,809495,sinestep1.wav,None,1000,25,947508,1289,139.285
E,0,809495,sinestep1.wav,None,1000,25,949508,340,141.285
E,0,809495,sinestep1.wav,None,1000,25,951508,350,143.285
E,0,809495,sinestep3.wav,None,1000,25,953508,351,145.285
E,0,809495,vowelstep5.wav,None,1000,25,955508,331,147.285
E,0,809495,silence.wav,None,1000,25,957507,330,149.285
E,0,809495,sinestep3_catch.wav,2,121,25,959507,330,151.285
E,0,809495,silence.wav,None,1000,25,961508,1219,153.285
E,0,809495,sinestep7.wav,None,1000,25,963508,340,155.285
E,0,809495,sinestep5.wav,None,1000,25,965508,347,157.285
E,0,809495,silence.wav,None,1000,25,967508,345,159.285
E,0,809495,vowelstep5.wav,None,1000,25,969508,330,161.285
E,0,809495,vowelstep1.wav,None,1000,25,971508,330,163.285
E,0,809495,vowelstep3.wav,None,1000,25,973508,330,165.285
E,0,809495,sinestep5.wav,None,1000,25,975508,340,167.285
E,0,809495,sinestep7.wav,None,1000,25,977508,340,169.285
E,0,809495,vowelstep1.wav,None,1000,25,979509,340,171.285
E,0,809495,vowelstep7.wav,None,1000,25,981509,347,173.285
E,0,809495,sinestep3.wav,None,1000,25,983508,329,175.285
E,0,809495,silence.wav,None,1000,25,985508,328,177.285
E,0,809495,sinestep1_catch.wav,None,1000,25,987508,329,179.285
E,0,809495,sinestep7.wav,None,1000,25,989508,328,181.285
E,0,809495,vowelstep1.wav,None,1000,25,991508,339,183.285
E,0,809495,sinestep5.wav,None,1000,25,993508,335,185.285
E,0,809495,sinestep5.wav,None,1000,25,995508,350,187.285
E,0,809495,vowelstep1.wav,None,1000,25,997509,328,189.285
E,0,809495,sinestep7.wav,None,1000,25,999509,328,191.285
E,0,809495,sinestep3.wav,None,1000,25,1001509,337,193.285
E,0,809495,sinestep7.wav,None,1000,25,1003509,338,195.285
E,0,809495,silence.wav,None,1000,25,1005509,334,197.285
E,0,809495,vowelstep1.wav,None,1000,25,1007508,338,199.285
E,0,809495,sinestep1.wav,None,1000,25,1009508,348,201.285
E,0,809495,vowelstep1.wav,None,1000,25,1011508,328,203.285
E,0,809495,vowelstep1.wav,None,1000,25,1013508,327,205.285
E,0,809495,vowelstep1_catch.wav,2,81,25,1015509,328,207.285
E,0,809495,vowelstep1.wav,None,1000,25,1017509,1256,209.285
E,0,809495,vowelstep1.wav,None,1000,25,1019509,336,211.285
E,0,809495,silence.wav,None,1000,25,1021509,336,213.285
E,0,809495,sinestep7.wav,None,1000,25,1023509,347,215.285
E,0,809495,vowelstep7.wav,None,1000,25,1025509,318,217.285
E,0,809495,vowelstep3_catch.wav,2,8,25,1027509,327,219.285
E,0,809495,vowelstep5.wav,None,1000,25,1029509,1318,221.285
E,0,809495,sinestep3.wav,None,1000,25,1031509,337,223.285
E,0,809495,silence.wav,None,1000,25,1033509,337,225.285
E,0,809495,sinestep1.wav,None,1000,25,1035509,336,227.285
E,0,809495,sinestep5.wav,None,1000,25,1037509,346,229.285
E,0,809495,sinestep5.wav,None,1000,25,1039509,313,231.285
E,0,809495,sinestep3.wav,None,1000,25,1041509,346,233.285
E,0,809495,sinestep5.wav,None,1000,25,1043509,355,235.285
E,0,809495,vowelstep3.wav,None,1000,25,1045509,335,237.285
E,0,809495,sinestep7.wav,None,1000,25,1047509,336,239.285
E,0,809495,sinestep7.wav,None,1000,25,1049510,336,241.285
E,0,809495,silence.wav,None,1000,25,1051510,335,243.285
E,0,809495,sinestep3.wav,None,1000,25,1053510,340,245.285
E,0,809495,sinestep3.wav,None,1000,25,1055509,327,247.285
E,0,809495,vowelstep3.wav,None,1000,25,1057509,353,249.285
E,0,809495,silence.wav,None,1000,25,1059509,326,251.285
E,0,809495,sinestep7.wav,None,1000,25,1061509,335,253.285
E,0,809495,silence.wav,None,1000,25,1063509,335,255.285
E,0,809495,vowelstep7.wav,None,1000,25,1065509,345,257.285
E,0,809495,vowelstep3.wav,None,1000,25,1067510,345,259.285
E,0,809495,silence.wav,None,1000,25,1069510,340,261.285
E,0,809495,vowelstep3.wav,None,1000,25,1071510,342,263.285
E,0,809495,vowelstep1.wav,None,1000,25,1073510,319,265.285
E,0,809495,vowelstep5.wav,None,1000,25,1075510,335,267.285
E,0,809495,silence.wav,None,1000,25,1077510,332,269.285
E,0,809495,vowelstep3.wav,None,1000,25,1079509,334,271.285
E,0,809495,sinestep1.wav,None,1000,25,1081509,343,273.285
E,0,809495,vowelstep5_catch.wav,2,105,25,1083510,344,275.285
E,0,809495,sinestep7.wav,None,1000,25,1085510,1246,277.285
E,0,809495,sinestep7.wav,None,1000,25,1087510,322,279.285
E,0,809495,vowelstep7.wav,None,1000,25,1089510,333,281.285
E,0,809495,silence.wav,None,1000,25,1091510,333,283.285
E,0,809495,sinestep5.wav,None,1000,25,1093510,342,285.285
E,0,809495,silence.wav,None,1000,25,1095510,344,287.285
E,0,809495,silence.wav,None,1000,25,1097510,342,289.285
E,0,809495,vowelstep5.wav,None,1000,25,1099510,344,291.285
E,0,809495,vowelstep5.wav,None,1000,25,1101511,331,293.285
E,0,809495,silence.wav,None,1000,25,1103510,331,295.285
E,0,809495,vowelstep5.wav,None,1000,25,1105510,331,297.285
E,0,809495,vowelstep7_catch.wav,2,38,25,1107510,331,299.285
E,0,809495,vowelstep7_catch.wav,2,132,25,1109510,1304,301.285
E,0,809495,vowelstep5.wav,None,1000,25,1111510,1209,303.285
E,0,809495,sinestep1.wav,None,1000,25,1113510,341,305.285
E,0,809495,vowelstep3.wav,None,1000,25,1115510,352,307.285
E,0,809495,vowelstep5_catch.wav,2,114,25,1117510,331,309.285
E,0,809495,vowelstep7.wav,None,1000,25,1119511,1216,311.285
E,0,809495,vowelstep5.wav,None,1000,25,1121511,332,313.285
E,0,809495,vowelstep7.wav,None,1000,25,1123511,340,315.285
E,0,809495,vowelstep1.wav,None,1000,25,1125511,338,317.285
E,0,809495,vowelstep3_catch.wav,2,88,25,1127510,340,319.285
C,1,1196730,sinestep1.wav,None,1000,25,1196745,0,1.285
C,1,1196730,vowelstep1.wav,None,1000,25,1198745,342,3.285
C,1,1196730,sinestep1.wav,None,1000,25,1200745,341,5.285
C,1,1196730,sinestep1.wav,None,1000,25,1202745,349,7.285
C,1,1196730,vowelstep1.wav,None,1000,25,1204745,331,9.285
C,1,1196730,sinestep1.wav,None,1000,25,1206746,331,11.285
C,1,1196730,sinestep7.wav,None,1000,25,1208745,331,13.285
C,1,1196730,vowelstep7.wav,None,1000,25,1210745,341,15.285
C,1,1196730,vowelstep3.wav,None,1000,25,1212745,341,17.285
C,1,1196730,vowelstep5.wav,None,1000,25,1214745,351,19.285
C,1,1196730,silence.wav,None,1000,25,1216745,321,21.285
C,1,1196730,sinestep3.wav,None,1000,25,1218745,327,23.285
C,1,1196730,vowelstep5.wav,None,1000,25,1220745,330,25.285
C,1,1196730,sinestep1.wav,None,1000,25,1222745,329,27.285
C,1,1196730,vowelstep1.wav,None,1000,25,1224746,340,29.285
C,1,1196730,vowelstep7.wav,None,1000,25,1226746,339,31.285
C,1,1196730,vowelstep3.wav,None,1000,25,1228746,339,33.285
C,1,1196730,sinestep1.wav,None,1000,25,1230746,348,35.285
C,1,1196730,sinestep5.wav,None,1000,25,1232745,330,37.285
C,1,1196730,silence.wav,None,1000,25,1234745,329,39.285
C,1,1196730,vowelstep7.wav,None,1000,25,1236745,330,41.285
C,1,1196730,vowelstep5.wav,None,1000,25,1238745,329,43.285
C,1,1196730,sinestep5.wav,None,1000,25,1240745,340,45.285
C,1,1196730,silence.wav,None,1000,25,1242746,339,47.285
C,1,1196730,sinestep5.wav,None,1000,25,1244746,348,49.285
C,1,1196730,sinestep1.wav,None,1000,25,1246746,328,51.285
C,1,1196730,silence.wav,None,1000,25,1248746,329,53.285
C,1,1196730,vowelstep1.wav,None,1000,25,1250746,328,55.285
C,1,1196730,vowelstep1.wav,None,1000,25,1252746,338,57.285
C,1,1196730,sinestep1.wav,None,1000,25,1254746,338,59.285
C,1,1196730,silence.wav,None,1000,25,1256745,338,61.285
C,1,1196730,vowelstep5.wav,None,1000,25,1258746,347,63.285
C,1,1196730,vowelstep3.wav,None,1000,25,1260746,327,65.285
C,1,1196730,vowelstep3.wav,None,1000,25,1262746,327,67.285
C,1,1196730,vowelstep7.wav,None,1000,25,1264746,327,69.285
C,1,1196730,silence.wav,None,1000,25,1266746,333,71.285
C,1,1196730,vowelstep3.wav,None,1000,25,1268746,337,73.285
C,1,1196730,silence.wav,None,1000,25,1270746,336,75.285
C,1,1196730,sinestep5.wav,None,1000,25,1272746,347,77.285
C,1,1196730,vowelstep7.wav,None,1000,25,1274746,317,79.285
C,1,1196730,vowelstep1_catch.wav,2,266,25,1276747,328,81.285
C,1,1196730,vowelstep3.wav,None,1000,25,1278747,1060,83.285
C,1,1196730,sinestep7.wav,None,1000,25,1280746,325,85.285
C,1,1196730,vowelstep3.wav,None,1000,25,1282746,337,87.285
C,1,1196730,sinestep1.wav,None,1000,25,1284746,336,89.285
C,1,1196730,sinestep7.wav,None,1000,25,1286746,346,91.285
C,1,1196730,sinestep7.wav,None,1000,25,1288746,317,93.285
C,1,1196730,sinestep3.wav,None,1000,25,1290746,326,95.285
C,1,1196730,vowelstep3_catch.wav,2,72,25,1292746,327,97.285
C,1,1196730,sinestep5.wav,None,1000,25,1294747,1263,99.285
C,1,1196730,sinestep5.wav,None,1000,25,1296747,334,101.285
C,1,1196730,vowelstep3.wav,None,1000,25,1298747,335,103.285
C,1,1196730,vowelstep5.wav,None,1000,25,1300747,335,105.285
C,1,1196730,sinestep1.wav,None,1000,25,1302747,325,107.285
C,1,1196730,sinestep3.wav,None,1000,25,1304747,326,109.285
C,1,1196730,vowelstep5.wav,None,1000,25,1306746,326,111.285
C,1,1196730,vowelstep7.wav,None,1000,25,1308746,325,113.285
C,1,1196730,vowelstep1.wav,None,1000,25,1310746,336,115.285
C,1,1196730,sinestep7.wav,None,1000,25,1312747,335,117.285
C,1,1196730,sinestep3.wav,None,1000,25,1314747,331,119.285
C,1,1196730,vowelstep1.wav,None,1000,25,1316747,314,121.285
C,1,1196730,vowelstep1.wav,None,1000,25,1318747,324,123.285
C,1,1196730,sinestep3.wav,None,1000,25,1320747,324,125.285
C,1,1196730,silence.wav,None,1000,25,1322747,324,127.285
C,1,1196730,silence.wav,None,1000,25,1324747,334,129.285
C,1,1196730,vowelstep5_catch.wav,2,111,25,1326747,334,131.285
C,1,1196730,vowelstep5.wav,None,1000,25,1328748,1222,133.285
C,1,1196730,silence.wav,None,1000,25,1330747,319,135.285
C,1,1196730,sinestep1.wav,None,1000,25,1332747,323,137.285
C,1,1196730,vowelstep7.wav,None,1000,25,1334747,321,139.285
C,1,1196730,sinestep7.wav,None,1000,25,1336747,322,141.285
C,1,1196730,silence.wav,None,1000,25,1338747,334,143.285
C,1,1196730,silence.wav,None,1000,25,1340747,334,145.285
C,1,1196730,sinestep7.wav,None,1000,25,1342747,333,147.285
C,1,1196730,vowelstep1.wav,None,1000,25,1344747,344,149.285
C,1,1196730,vowelstep5.wav,None,1000,25,1346748,324,151.285
C,1,1196730,vowelstep5.wav,None,1000,25,1348748,323,153.285
C,1,1196730,vowelstep7.wav,None,1000,25,1350748,324,155.285
C,1,1196730,sinestep7.wav,None,1000,25,1352748,332,157.285
C,1,1196730,vowelstep1.wav,None,1000,25,1354747,332,159.285
C,1,1196730,vowelstep3.wav,None,1000,25,1356747,332,161.285
C,1,1196730,sinestep5.wav,None,1000,25,1358747,342,163.285
C,1,1196730,sinestep7.wav,None,1000,25,1360747,339,165.285
C,1,1196730,sinestep1.wav,None,1000,25,1362747,340,167.285
C,1,1196730,sinestep7.wav,None,1000,25,1364748,338,169.285
C,1,1196730,sinestep3.wav,None,1000,25,1366748,331,171.285
C,1,1196730,silence.wav,None,1000,25,1368748,329,173.285
C,1,1196730,vowelstep7.wav,None,1000,25,1370748,329,175.285
C,1,1196730,sinestep7.wav,None,1000,25,1372748,330,177.285
C,1,1196730,sinestep5.wav,None,1000,25,1374748,321,179.285
C,1,1196730,vowelstep7.wav,None,1000,25,1376748,321,181.285
C,1,1196730,vowelstep5.wav,None,1000,25,1378747,322,183.285
C,1,1196730,vowelstep3.wav,None,1000,25,1380748,331,185.285
C,1,1196730,vowelstep7_catch.wav,2,187,25,1382748,330,187.285
C,1,1196730,vowelstep3.wav,None,1000,25,1384748,1143,189.285
C,1,1196730,vowelstep5.wav,None,1000,25,1386748,339,191.285
C,1,1196730,vowelstep7.wav,None,1000,25,1388748,340,193.285
C,1,1196730,vowelstep7_catch.wav,2,146,25,1390748,340,195.285
C,1,1196730,vowelstep5_catch.wav,2,52,25,1392748,1193,197.285
C,1,1196730,sinestep5.wav,None,1000,25,1394748,1276,199.285
C,1,1196730,sinestep3.wav,None,1000,25,1396748,326,201.285
C,1,1196730,vowelstep3_catch.wav,2,65,25,1398749,329,203.285
C,1,1196730,vowelstep1_catch.wav,2,35,25,1400749,1261,205.285
C,1,1196730,vowelstep5.wav,None,1000,25,1402748,1304,207.285
C,1,1196730,vowelstep1.wav,None,1000,25,1404748,337,209.285
C,1,1196730,sinestep1_catch.wav,2,39,25,1406748,348,211.285
C,1,1196730,sinestep3_catch.wav,2,16,25,1408748,1287,213.285
C,1,1196730,sinestep1.wav,None,1000,25,1410748,1307,215.285
C,1,1196730,vowelstep3.wav,None,1000,25,1412748,330,217.285
C,1,1196730,sinestep3.wav,None,1000,25,1414748,338,219.285
C,1,1196730,vowelstep5.wav,None,1000,25,1416749,341,221.285
C,1,1196730,sinestep7.wav,None,1000,25,1418749,337,223.285
C,1,1196730,sinestep1.wav,None,1000,25,1420749,338,225.285
C,1,1196730,sinestep5_catch.wav,2,120,25,1422749,344,227.285
C,1,1196730,vowelstep7.wav,None,1000,25,1424749,1204,229.285
C,1,1196730,vowelstep3.wav,None,1000,25,1426749,323,231.285
C,1,1196730,silence.wav,None,1000,25,1428748,323,233.285
C,1,1196730,vowelstep1.wav,None,1000,25,1430748,337,235.285
C,1,1196730,sinestep5.wav,None,1000,25,1432748,335,237.285
C,1,1196730,sinestep1.wav,None,1000,25,1434749,337,239.285
C,1,1196730,vowelstep7.wav,None,1000,25,1436749,346,241.285
C,1,1196730,sinestep3.wav,None,1000,25,1438749,325,243.285
C,1,1196730,sinestep3.wav,None,1000,25,1440749,326,245.285
C,1,1196730,sinestep5.wav,None,1000,25,1442749,323,247.285
C,1,1196730,vowelstep3.wav,None,1000,25,1444749,337,249.285
C,1,1196730,sinestep3.wav,None,1000,25,1446749,335,251.285
C,1,1196730,silence.wav,None,1000,25,1448749,337,253.285
C,1,1196730,sinestep3.wav,None,1000,25,1450749,348,255.285
C,1,1196730,vowelstep1.wav,None,1000,25,1452749,326,257.285
C,1,1196730,silence.wav,None,1000,25,1454749,326,259.285
C,1,1196730,vowelstep1.wav,None,1000,25,1456749,335,261.285
C,1,1196730,silence.wav,None,1000,25,1458749,337,263.285
C,1,1196730,sinestep7.wav,None,1000,25,1460749,335,265.285
C,1,1196730,sinestep3.wav,None,1000,25,1462749,335,267.285
C,1,1196730,vowelstep1.wav,None,1000,25,1464749,345,269.285
C,1,1196730,sinestep7.wav,None,1000,25,1466749,325,271.285
C,1,1196730,sinestep7_catch.wav,2,28,25,1468733,326,273.285
C,1,1196730,vowelstep5.wav,None,1000,25,1470750,1325,275.285
C,1,1196730,silence.wav,None,1000,25,1472750,334,277.285
C,1,1196730,silence.wav,None,1000,25,1474749,334,279.285
C,1,1196730,sinestep3.wav,None,1000,25,1476749,334,281.285
C,1,1196730,vowelstep7.wav,None,1000,25,1478733,346,283.285
C,1,1196730,sinestep5.wav,None,1000,25,1480749,344,285.285
C,1,1196730,sinestep5.wav,None,1000,25,1482749,325,287.285
C,1,1196730,vowelstep3.wav,None,1000,25,1484749,325,289.285
C,1,1196730,sinestep3.wav,None,1000,25,1486733,334,291.285
C,1,1196730,silence.wav,None,1000,25,1488750,356,293.285
C,1,1196730,silence.wav,None,1000,25,1490750,335,295.285
C,1,1196730,vowelstep7.wav,None,1000,25,1492750,314,297.285
C,1,1196730,silence.wav,None,1000,25,1494733,325,299.285
C,1,1196730,vowelstep5.wav,None,1000,25,1496733,344,301.285
C,1,1196730,sinestep5.wav,None,1000,25,1498733,355,303.285
C,1,1196730,silence.wav,None,1000,25,1500749,353,305.285
C,1,1196730,silence.wav,None,1000,25,1502749,334,307.285
C,1,1196730,silence.wav,None,1000,25,1504734,332,309.285
C,1,1196730,sinestep7_catch.wav,2,90,25,1506750,342,311.285
C,1,1196730,sinestep7.wav,None,1000,25,1508750,1232,313.285
C,1,1196730,sinestep5_catch.wav,2,38,25,1510733,321,315.285
C,1,1196730,sinestep5.wav,None,1000,25,1512733,1315,317.285
C,1,1196730,sinestep3_catch.wav,2,10,25,1514733,352,319.285
H,2,1587536,sinestep3.wav,None,1000,25,1587551,0,1.285
H,2,1587536,sinestep7.wav,None,1000,25,1589551,321,3.285
H,2,1587536,sinestep3.wav,None,1000,25,1591552,324,5.285
H,2,1587536,vowelstep3.wav,None,1000,25,1593552,322,7.285
H,2,1587536,vowelstep1.wav,None,1000,25,1595552,334,9.285
H,2,1587536,sinestep7.wav,None,1000,25,1597551,333,11.285
H,2,1587536,vowelstep3.wav,None,1000,25,1599551,330,13.285
H,2,1587536,silence.wav,None,1000,25,1601551,343,15.285
H,2,1587536,vowelstep1.wav,None,1000,25,1603551,342,17.285
H,2,1587536,sinestep5.wav,None,1000,25,1605551,344,19.285
H,2,1587536,sinestep7.wav,None,1000,25,1607551,354,21.285
H,2,1587536,vowelstep7.wav,None,1000,25,1609552,332,23.285
H,2,1587536,vowelstep1_catch.wav,2,37,25,1611552,333,25.285
H,2,1587536,sinestep5.wav,None,1000,25,1613552,1294,27.285
H,2,1587536,vowelstep5.wav,None,1000,25,1615552,341,29.285
H,2,1587536,silence.wav,None,1000,25,1617552,343,31.285
H,2,1587536,vowelstep3_catch.wav,None,1000,25,1619552,341,33.285
H,2,1587536,sinestep7.wav,None,1000,25,1621551,323,35.285
H,2,1587536,sinestep5.wav,None,1000,25,1623551,322,37.285
H,2,1587536,silence.wav,None,1000,25,1625552,331,39.285
H,2,1587536,vowelstep3.wav,None,1000,25,1627552,331,41.285
H,2,1587536,vowelstep1.wav,None,1000,25,1629552,342,43.285
H,2,1587536,vowelstep1.wav,None,1000,25,1631552,337,45.285
H,2,1587536,vowelstep3.wav,None,1000,25,1633552,341,47.285
H,2,1587536,sinestep3.wav,None,1000,25,1635552,320,49.285
H,2,1587536,vowelstep1.wav,None,1000,25,1637552,329,51.285
H,2,1587536,sinestep7.wav,None,1000,25,1639552,330,53.285
H,2,1587536,vowelstep7.wav,None,1000,25,1641552,332,55.285
H,2,1587536,vowelstep5_catch.wav,2,25,25,1643553,342,57.285
H,2,1587536,vowelstep5.wav,None,1000,25,1645552,1314,59.285
H,2,1587536,vowelstep3.wav,None,1000,25,1647552,340,61.285
H,2,1587536,vowelstep7_catch.wav,2,85,25,1649552,336,63.285
H,2,1587536,sinestep3.wav,None,1000,25,1651552,1244,65.285
H,2,1587536,sinestep1.wav,None,1000,25,1653552,328,67.285
H,2,1587536,sinestep7.wav,None,1000,25,1655552,331,69.285
H,2,1587536,silence.wav,None,1000,25,1657552,331,71.285
H,2,1587536,vowelstep1.wav,None,1000,25,1659552,340,73.285
H,2,1587536,vowelstep7.wav,None,1000,25,1661553,336,75.285
H,2,1587536,sinestep7.wav,None,1000,25,1663553,339,77.285
H,2,1587536,sinestep1.wav,None,1000,25,1665553,317,79.285
H,2,1587536,sinestep7.wav,None,1000,25,1667553,330,81.285
H,2,1587536,sinestep1.wav,None,1000,25,1669552,328,83.285
H,2,1587536,vowelstep5.wav,None,1000,25,1671552,338,85.285
H,2,1587536,sinestep3.wav,None,1000,25,1673552,339,87.285
H,2,1587536,vowelstep5.wav,None,1000,25,1675552,338,89.285
H,2,1587536,silence.wav,None,1000,25,1677552,338,91.285
H,2,1587536,silence.wav,None,1000,25,1679553,324,93.285
H,2,1587536,sinestep5.wav,None,1000,25,1681553,328,95.285
H,2,1587536,sinestep3.wav,None,1000,25,1683553,326,97.285
H,2,1587536,sinestep7.wav,None,1000,25,1685553,328,99.285
H,2,1587536,sinestep7_catch.wav,2,503,25,1687553,338,101.285
H,2,1587536,silence.wav,None,1000,25,1689553,834,103.285
H,2,1587536,sinestep3.wav,None,1000,25,1691553,347,105.285
H,2,1587536,silence.wav,None,1000,25,1693552,328,107.285
H,2,1587536,vowelstep1.wav,None,1000,25,1695553,327,109.285
H,2,1587536,vowelstep7.wav,None,1000,25,1697553,326,111.285
H,2,1587536,sinestep5.wav,None,1000,25,1699553,328,113.285
H,2,1587536,silence.wav,None,1000,25,1701553,336,115.285
H,2,1587536,vowelstep7.wav,None,1000,25,1703553,337,117.285
H,2,1587536,vowelstep3.wav,None,1000,25,1705553,336,119.285
H,2,1587536,sinestep5.wav,None,1000,25,1707553,316,121.285
H,2,1587536,sinestep1.wav,None,1000,25,1709553,326,123.285
H,2,1587536,vowelstep3.wav,None,1000,25,1711553,326,125.285
H,2,1587536,vowelstep3.wav,None,1000,25,1713554,323,127.285
H,2,1587536,vowelstep5.wav,None,1000,25,1715554,336,129.285
H,2,1587536,vowelstep1.wav,None,1000,25,1717553,334,131.285
H,2,1587536,vowelstep7.wav,None,1000,25,1719553,333,133.285
H,2,1587536,vowelstep3.wav,None,1000,25,1721553,345,135.285
H,2,1587536,vowelstep5.wav,None,1000,25,1723553,326,137.285
H,2,1587536,vowelstep5.wav,None,1000,25,1725553,325,139.285
H,2,1587536,sinestep7.wav,None,1000,25,1727553,323,141.285
H,2,1587536,vowelstep1.wav,None,1000,25,1729553,336,143.285
H,2,1587536,sinestep3.wav,None,1000,25,1731554,335,145.285
H,2,1587536,sinestep1.wav,None,1000,25,1733554,335,147.285
H,2,1587536,vowelstep1.wav,None,1000,25,1735554,315,149.285
H,2,1587536,sinestep5_catch.wav,2,239,25,1737554,314,151.285
H,2,1587536,sinestep7.wav,None,1000,25,1739554,1082,153.285
H,2,1587536,sinestep3_catch.wav,2,17,25,1741553,324,155.285
H,2,1587536,sinestep7.wav,None,1000,25,1743553,1313,157.285
H,2,1587536,sinestep5.wav,None,1000,25,1745553,335,159.285
H,2,1587536,silence.wav,None,1000,25,1747553,333,161.285
H,2,1587536,sinestep1_catch.wav,2,38,25,1749554,343,163.285
H,2,1587536,vowelstep7.wav,None,1000,25,1751554,1284,165.285
H,2,1587536,vowelstep7.wav,None,1000,25,1753554,323,167.285
H,2,1587536,sinestep7.wav,None,1000,25,1755554,323,169.285
H,2,1587536,sinestep3.wav,None,1000,25,1757554,333,171.285
H,2,1587536,sinestep5.wav,None,1000,25,1759554,333,173.285
H,2,1587536,vowelstep1_catch.wav,2,59,25,1761554,333,175.285
H,2,1587536,vowelstep1.wav,None,1000,25,1763554,1285,177.285
H,2,1587536,sinestep3.wav,None,1000,25,1765554,324,179.285
H,2,1587536,sinestep3.wav,None,1000,25,1767554,323,181.285
H,2,1587536,vowelstep5.wav,None,1000,25,1769554,323,183.285
H,2,1587536,sinestep1.wav,None,1000,25,1771554,332,185.285
H,2,1587536,sinestep1.wav,None,1000,25,1773554,333,187.285
H,2,1587536,vowelstep7.wav,None,1000,25,1775554,332,189.285
H,2,1587536,sinestep1.wav,None,1000,25,1777554,331,191.285
H,2,1587536,sinestep5.wav,None,1000,25,1779554,322,193.285
H,2,1587536,vowelstep3_catch.wav,2,57,25,1781554,323,195.285
H,2,1587536,sinestep1.wav,None,1000,25,1783555,1263,197.285
H,2,1587536,silence.wav,None,1000,25,1785555,321,199.285
H,2,1587536,vowelstep1.wav,None,1000,25,1787555,331,201.285
H,2,1587536,vowelstep5_catch.wav,2,43,25,1789555,330,203.285
H,2,1587536,sinestep5.wav,None,1000,25,1791554,1298,205.285
H,2,1587536,sinestep1.wav,None,1000,25,1793554,342,207.285
H,2,1587536,silence.wav,None,1000,25,1795554,319,209.285
H,2,1587536,sinestep3.wav,None,1000,25,1797554,322,211.285
H,2,1587536,silence.wav,None,1000,25,1799554,321,213.285
H,2,1587536,vowelstep7_catch.wav,2,72,25,1801555,331,215.285
H,2,1587536,vowelstep5.wav,None,1000,25,1803555,1257,217.285
H,2,1587536,sinestep7.wav,None,1000,25,1805555,340,219.285
H,2,1587536,silence.wav,None,1000,25,1807555,307,221.285
H,2,1587536,sinestep1.wav,None,1000,25,1809555,321,223.285
H,2,1587536,silence.wav,None,1000,25,1811555,319,225.285
H,2,1587536,silence.wav,None,1000,25,1813555,321,227.285
H,2,1587536,silence.wav,None,1000,25,1815554,331,229.285
H,2,1587536,silence.wav,None,1000,25,1817554,330,231.285
H,2,1587536,sinestep5.wav,None,1000,25,1819555,328,233.285
H,2,1587536,silence.wav,None,1000,25,1821555,339,235.285
H,2,1587536,vowelstep3.wav,None,1000,25,1823555,319,237.285
H,2,1587536,silence.wav,None,1000,25,1825555,319,239.285
H,2,1587536,silence.wav,None,1000,25,1827555,319,241.285
H,2,1587536,vowelstep1_catch.wav,2,191,25,1829555,330,243.285
H,2,1587536,vowelstep5.wav,None,1000,25,1831555,1138,245.285
H,2,1587536,vowelstep7.wav,None,1000,25,1833555,339,247.285
H,2,1587536,vowelstep3_catch.wav,2,57,25,1835556,309,249.285
H,2,1587536,vowelstep1.wav,None,1000,25,1837556,1260,251.285
H,2,1587536,sinestep3.wav,None,1000,25,1839555,318,253.285
H,2,1587536,vowelstep5_catch.wav,2,246,25,1841555,328,255.285
H,2,1587536,vowelstep5.wav,None,1000,25,1843539,1081,257.285
H,2,1587536,silence.wav,None,1000,25,1845539,348,259.285
H,2,1587536,vowelstep7.wav,None,1000,25,1847555,328,261.285
H,2,1587536,sinestep5.wav,None,1000,25,1849555,338,263.285
H,2,1587536,vowelstep5.wav,None,1000,25,1851555,338,265.285
H,2,1587536,vowelstep7.wav,None,1000,25,1853556,318,267.285
H,2,1587536,vowelstep3.wav,None,1000,25,1855556,343,269.285
H,2,1587536,vowelstep3.wav,None,1000,25,1857556,327,271.285
H,2,1587536,silence.wav,None,1000,25,1859539,326,273.285
H,2,1587536,vowelstep3.wav,None,1000,25,1861539,358,275.285
H,2,1587536,sinestep1.wav,None,1000,25,1863555,337,277.285
H,2,1587536,silence.wav,None,1000,25,1865555,337,279.285
H,2,1587536,sinestep1.wav,None,1000,25,1867555,337,281.285
H,2,1587536,vowelstep3.wav,None,1000,25,1869555,347,283.285
H,2,1587536,silence.wav,None,1000,25,1871556,324,285.285
H,2,1587536,vowelstep5.wav,None,1000,25,1873556,326,287.285
H,2,1587536,vowelstep5.wav,None,1000,25,1875539,325,289.285
H,2,1587536,vowelstep1.wav,None,1000,25,1877539,356,291.285
H,2,1587536,sinestep5.wav,None,1000,25,1879539,337,293.285
H,2,1587536,vowelstep7.wav,None,1000,25,1881539,335,295.285
H,2,1587536,vowelstep1.wav,None,1000,25,1883556,336,297.285
H,2,1587536,vowelstep7.wav,None,1000,25,1885556,326,299.285
H,2,1587536,vowelstep3.wav,None,1000,25,1887555,326,301.285
H,2,1587536,sinestep1.wav,None,1000,25,1889556,324,303.285
H,2,1587536,sinestep5.wav,None,1000,25,1891540,324,305.285
H,2,1587536,vowelstep5.wav,None,1000,25,1893540,334,307.285
H,2,1587536,sinestep3.wav,None,1000,25,1895539,335,309.285
H,2,1587536,vowelstep7.wav,None,1000,25,1897539,344,311.285
H,2,1587536,sinestep7.wav,None,1000,25,1899539,345,313.285
H,2,1587536,sinestep5.wav,None,1000,25,1901556,345,315.285
H,2,1587536,sinestep3.wav,None,1000,25,1903556,322,317.285
H,2,1587536,sinestep1.wav,None,1000,25,1905540,335,319.285
F,3,60071,sinestep1.wav,None,1000,25,60082,0,1.285
F,3,60071,vowelstep5.wav,None,1000,25,62082,329,3.285
F,3,60071,vowelstep3.wav,None,1000,25,64082,337,5.285
F,3,60071,sinestep5.wav,None,1000,25,66082,335,7.285
F,3,60071,vowelstep7.wav,None,1000,25,68082,346,9.285
F,3,60071,silence.wav,None,1000,25,70083,345,11.285
F,3,60071,vowelstep5.wav,None,1000,25,72083,345,13.285
F,3,60071,sinestep3.wav,None,1000,25,74083,335,15.285
F,3,60071,sinestep3.wav,None,1000,25,76083,334,17.285
F,3,60071,silence.wav,None,1000,25,78083,335,19.285
F,3,60071,vowelstep7.wav,None,1000,25,80083,335,21.285
F,3,60071,vowelstep7.wav,None,1000,25,82082,345,23.285
F,3,60071,vowelstep1_catch.wav,2,62,25,84082,345,25.285
F,3,60071,vowelstep3_catch.wav,2,41,25,86082,1209,27.285
F,3,60071,vowelstep1.wav,None,1000,25,88083,1314,29.285
F,3,60071,sinestep5.wav,None,1000,25,90083,334,31.285
F,3,60071,sinestep5.wav,None,1000,25,92083,334,33.285
F,3,60071,vowelstep7.wav,None,1000,25,94083,333,35.285
F,3,60071,sinestep3.wav,None,1000,25,96083,343,37.285
F,3,60071,sinestep7.wav,None,1000,25,98083,343,39.285
F,3,60071,vowelstep5_catch.wav,2,17,25,100083,354,41.285
F,3,60071,sinestep1.wav,None,1000,25,102083,1335,43.285
F,3,60071,vowelstep7_catch.wav,2,22,25,104083,334,45.285
F,3,60071,vowelstep3.wav,None,1000,25,106083,1309,47.285
F,3,60071,sinestep1.wav,None,1000,25,108083,332,49.285
F,3,60071,sinestep7.wav,None,1000,25,110083,342,51.285
F,3,60071,silence.wav,None,1000,25,112083,343,53.285
F,3,60071,sinestep7.wav,None,1000,25,114083,343,55.285
F,3,60071,vowelstep1.wav,None,1000,25,116083,352,57.285
F,3,60071,vowelstep3.wav,None,1000,25,118083,332,59.285
F,3,60071,vowelstep7_catch.wav,2,24,25,120083,333,61.285
F,3,60071,sinestep5.wav,None,1000,25,122084,1306,63.285
F,3,60071,sinestep3.wav,None,1000,25,124084,342,65.285
F,3,60071,vowelstep3.wav,None,1000,25,126084,342,67.285
F,3,60071,silence.wav,None,1000,25,128084,341,69.285
F,3,60071,vowelstep1.wav,None,1000,25,130083,352,71.285
F,3,60071,vowelstep1.wav,None,1000,25,132083,330,73.285
F,3,60071,vowelstep5_catch.wav,2,27,25,134083,332,75.285
F,3,60071,silence.wav,None,1000,25,136083,1308,77.285
F,3,60071,vowelstep3.wav,None,1000,25,138083,342,79.285
F,3,60071,vowelstep5.wav,None,1000,25,140084,341,81.285
F,3,60071,vowelstep3_catch.wav,None,1000,25,142084,341,83.285
F,3,60071,vowelstep3.wav,None,1000,25,144084,351,85.285
F,3,60071,sinestep7.wav,None,1000,25,146084,331,87.285
F,3,60071,vowelstep1.wav,None,1000,25,148084,331,89.285
F,3,60071,sinestep1.wav,None,1000,25,150084,331,91.285
F,3,60071,vowelstep1_catch.wav,None,1000,25,152084,341,93.285
F,3,60071,vowelstep5.wav,None,1000,25,154083,341,95.285
F,3,60071,sinestep7.wav,None,1000,25,156083,341,97.285
F,3,60071,vowelstep7.wav,None,1000,25,158084,349,99.285
F,3,60071,vowelstep3.wav,None,1000,25,160084,320,101.285
F,3,60071,sinestep3.wav,None,1000,25,162084,329,103.285
F,3,60071,silence.wav,None,1000,25,164084,329,105.285
F,3,60071,sinestep1.wav,None,1000,25,166084,338,107.285
F,3,60071,sinestep1.wav,None,1000,25,168084,339,109.285
F,3,60071,silence.wav,None,1000,25,170084,340,111.285
F,3,60071,sinestep7.wav,None,1000,25,172084,339,113.285
F,3,60071,vowelstep3.wav,None,1000,25,174084,329,115.285
F,3,60071,sinestep3.wav,None,1000,25,176085,327,117.285
F,3,60071,vowelstep3.wav,None,1000,25,178084,328,119.285
F,3,60071,vowelstep7.wav,None,1000,25,180084,338,121.285
F,3,60071,vowelstep7.wav,None,1000,25,182084,339,123.285
F,3,60071,vowelstep5.wav,None,1000,25,184084,338,125.285
F,3,60071,sinestep1.wav,None,1000,25,186084,338,127.285
F,3,60071,silence.wav,None,1000,25,188084,329,129.285
F,3,60071,sinestep1.wav,None,1000,25,190084,328,131.285
F,3,60071,sinestep3.wav,None,1000,25,192085,328,133.285
F,3,60071,sinestep1_catch.wav,2,108,25,194085,327,135.285
F,3,60071,sinestep3.wav,None,1000,25,196085,1229,137.285
F,3,60071,sinestep3.wav,None,1000,25,198085,338,139.285
F,3,60071,silence.wav,None,1000,25,200085,333,141.285
F,3,60071,silence.wav,None,1000,25,202084,328,143.285
F,3,60071,sinestep7.wav,None,1000,25,204084,347,145.285
F,3,60071,sinestep5.wav,None,1000,25,206084,348,147.285
F,3,60071,vowelstep1.wav,None,1000,25,208084,357,149.285
F,3,60071,sinestep7.wav,None,1000,25,210085,337,151.285
F,3,60071,silence.wav,None,1000,25,212085,337,153.285
F,3,60071,sinestep3_catch.wav,2,93,25,214085,336,155.285
F,3,60071,vowelstep5.wav,None,1000,25,216085,1252,157.285
F,3,60071,sinestep3.wav,None,1000,25,218085,347,159.285
F,3,60071,vowelstep5.wav,None,1000,25,220085,346,161.285
F,3,60071,sinestep3.wav,None,1000,25,222085,326,163.285
F,3,60071,vowelstep3.wav,None,1000,25,224085,336,165.285
F,3,60071,vowelstep1.wav,None,1000,25,226085,337,167.285
F,3,60071,sinestep5.wav,None,1000,25,228085,336,169.285
F,3,60071,vowelstep5.wav,None,1000,25,230085,345,171.285
F,3,60071,vowelstep1.wav,None,1000,25,232085,346,173.285
F,3,60071,vowelstep1.wav,None,1000,25,234085,345,175.285
F,3,60071,sinestep7.wav,None,1000,25,236085,355,177.285
F,3,60071,vowelstep1.wav,None,1000,25,238085,336,179.285
F,3,60071,sinestep5.wav,None,1000,25,240085,335,181.285
F,3,60071,vowelstep7.wav,None,1000,25,242085,336,183.285
F,3,60071,sinestep1.wav,None,1000,25,244085,345,185.285
F,3,60071,vowelstep7.wav,None,1000,25,246086,344,187.285
F,3,60071,sinestep5.wav,None,1000,25,248086,345,189.285
F,3,60071,vowelstep5.wav,None,1000,25,250086,354,191.285
F,3,60071,silence.wav,None,1000,25,252085,334,193.285
F,3,60071,sinestep7.wav,None,1000,25,254085,334,195.285
F,3,60071,vowelstep5.wav,None,1000,25,256085,334,197.285
F,3,60071,vowelstep7.wav,None,1000,25,258085,345,199.285
F,3,60071,silence.wav,None,1000,25,260085,344,201.285
F,3,60071,vowelstep1.wav,None,1000,25,262086,343,203.285
F,3,60071,vowelstep7.wav,None,1000,25,264086,353,205.285
F,3,60071,vowelstep7.wav,None,1000,25,266086,323,207.285
F,3,60071,vowelstep3.wav,None,1000,25,268086,333,209.285
F,3,60071,vowelstep3.wav,None,1000,25,270086,333,211.285
F,3,60071,silence.wav,None,1000,25,272086,343,213.285
F,3,60071,sinestep7.wav,None,1000,25,274086,342,215.285
F,3,60071,sinestep1.wav,None,1000,25,276085,343,217.285
F,3,60071,silence.wav,None,1000,25,278085,340,219.285
F,3,60071,vowelstep1.wav,None,1000,25,280086,326,221.285
F,3,60071,sinestep5_catch.wav,None,1000,25,282086,329,223.285
F,3,60071,sinestep1.wav,None,1000,25,284086,333,225.285
F,3,60071,silence.wav,None,1000,25,286086,333,227.285
F,3,60071,sinestep7.wav,None,1000,25,288086,343,229.285
F,3,60071,sinestep7.wav,None,1000,25,290086,341,231.285
F,3,60071,silence.wav,None,1000,25,292086,351,233.285
F,3,60071,vowelstep5.wav,None,1000,25,294086,323,235.285
F,3,60071,sinestep7.wav,None,1000,25,296086,333,237.285
F,3,60071,sinestep5.wav,None,1000,25,298087,333,239.285
F,3,60071,sinestep5.wav,None,1000,25,300086,341,241.285
F,3,60071,silence.wav,None,1000,25,302086,342,243.285
F,3,60071,vowelstep3.wav,None,1000,25,304086,341,245.285
F,3,60071,vowelstep3.wav,None,1000,25,306086,351,247.285
F,3,60071,silence.wav,None,1000,25,308086,331,249.285
F,3,60071,sinestep1.wav,None,1000,25,310086,332,251.285
F,3,60071,sinestep1.wav,None,1000,25,312086,331,253.285
F,3,60071,vowelstep5.wav,None,1000,25,314086,332,255.285
F,3,60071,silence.wav,None,1000,25,316087,339,257.285
F,3,60071,sinestep5.wav,None,1000,25,318087,340,259.285
F,3,60071,sinestep5.wav,None,1000,25,320087,351,261.285
F,3,60071,sinestep5.wav,None,1000,25,322087,347,263.285
F,3,60071,sinestep7.wav,None,1000,25,324086,331,265.285
F,3,60071,sinestep7_catch.wav,2,91,25,326086,330,267.285
F,3,60071,sinestep7_catch.wav,None,1000,25,328086,1248,269.285
F,3,60071,sinestep1.wav,None,1000,25,330086,339,271.285
F,3,60071,vowelstep7.wav,None,1000,25,332087,340,273.285
F,3,60071,sinestep3.wav,None,1000,25,334087,340,275.285
F,3,60071,sinestep3.wav,None,1000,25,336087,319,277.285
F,3,60071,silence.wav,None,1000,25,338087,329,279.285
F,3,60071,sinestep5_catch.wav,2,91,25,340087,329,281.285
F,3,60071,sinestep5.wav,None,1000,25,342087,1247,283.285
F,3,60071,silence.wav,None,1000,25,344087,337,285.285
F,3,60071,vowelstep5.wav,None,1000,25,346087,339,287.285
F,3,60071,silence.wav,None,1000,25,348086,339,289.285
F,3,60071,sinestep1.wav,None,1000,25,350087,350,291.285
F,3,60071,sinestep3.wav,None,1000,25,352087,328,293.285
F,3,60071,vowelstep3.wav,None,1000,25,354087,328,295.285
F,3,60071,silence.wav,None,1000,25,356087,328,297.285
F,3,60071,sinestep5.wav,None,1000,25,358087,338,299.285
F,3,60071,vowelstep5.wav,None,1000,25,360087,339,301.285
F,3,60071,vowelstep5.wav,None,1000,25,362087,339,303.285
F,3,60071,vowelstep1.wav,None,1000,25,364087,317,305.285
F,3,60071,sinestep3.wav,None,1000,25,366087,329,307.285
F,3,60071,silence.wav,None,1000,25,368088,328,309.285
F,3,60071,sinestep3_catch.wav,2,210,25,370088,327,311.285
F,3,60071,vowelstep1.wav,None,1000,25,372088,1127,313.285
F,3,60071,vowelstep7.wav,None,1000,25,374087,337,315.285
F,3,60071,vowelstep7.wav,None,1000,25,376087,337,317.285
F,3,60071,vowelstep1.wav,None,1000,25,378087,337,319.285
D,4,445409,sinestep5.wav,None,1000,25,445422,0,1.285
D,4,445409,vowelstep1_catch.wav,2,134,25,447422,349,3.285
D,4,445409,sinestep7.wav,None,1000,25,449422,1192,5.285
D,4,445409,vowelstep3.wav,None,1000,25,451422,331,7.285
D,4,445409,vowelstep3_catch.wav,2,63,25,453421,331,9.285
D,4,445409,vowelstep5_catch.wav,None,1000,25,455422,1277,11.285
D,4,445409,sinestep7.wav,None,1000,25,457422,340,13.285
D,4,445409,silence.wav,None,1000,25,459422,339,15.285
D,4,445409,vowelstep7_catch.wav,2,52,25,461422,320,17.285
D,4,445409,vowelstep7.wav,None,1000,25,463422,1275,19.285
D,4,445409,vowelstep3.wav,None,1000,25,465422,330,21.285
D,4,445409,vowelstep7_catch.wav,2,53,25,467422,329,23.285
D,4,445409,vowelstep5.wav,None,1000,25,469422,1285,25.285
D,4,445409,sinestep7.wav,None,1000,25,471422,339,27.285
D,4,445409,silence.wav,None,1000,25,473423,338,29.285
D,4,445409,vowelstep1.wav,None,1000,25,475423,348,31.285
D,4,445409,vowelstep1.wav,None,1000,25,477422,329,33.285
D,4,445409,vowelstep7.wav,None,1000,25,479422,327,35.285
D,4,445409,vowelstep3.wav,None,1000,25,481422,329,37.285
D,4,445409,sinestep3.wav,None,1000,25,483422,338,39.285
D,4,445409,sinestep1.wav,None,1000,25,485422,338,41.285
D,4,445409,vowelstep1.wav,None,1000,25,487422,338,43.285
D,4,445409,vowelstep1.wav,None,1000,25,489423,350,45.285
D,4,445409,sinestep7.wav,None,1000,25,491423,327,47.285
D,4,445409,sinestep3.wav,None,1000,25,493423,326,49.285
D,4,445409,vowelstep5_catch.wav,2,0,25,495423,327,51.285
D,4,445409,sinestep7.wav,None,1000,25,497423,1330,53.285
D,4,445409,vowelstep5.wav,None,1000,25,499423,338,55.285
D,4,445409,sinestep3.wav,None,1000,25,501422,337,57.285
D,4,445409,sinestep7.wav,None,1000,25,503422,347,59.285
D,4,445409,vowelstep3.wav,None,1000,25,505422,327,61.285
D,4,445409,vowelstep3.wav,None,1000,25,507423,328,63.285
D,4,445409,vowelstep3_catch.wav,None,1000,25,509423,326,65.285
D,4,445409,silence.wav,None,1000,25,511423,326,67.285
D,4,445409,vowelstep7.wav,None,1000,25,513423,336,69.285
D,4,445409,silence.wav,None,1000,25,515423,336,71.285
D,4,445409,sinestep1.wav,None,1000,25,517423,346,73.285
D,4,445409,vowelstep5.wav,None,1000,25,519423,325,75.285
D,4,445409,vowelstep1.wav,None,1000,25,521423,327,77.285
D,4,445409,sinestep7.wav,None,1000,25,523423,326,79.285
D,4,445409,vowelstep1.wav,None,1000,25,525423,336,81.285
D,4,445409,sinestep7.wav,None,1000,25,527423,335,83.285
D,4,445409,vowelstep7.wav,None,1000,25,529423,335,85.285
D,4,445409,vowelstep5.wav,None,1000,25,531423,344,87.285
D,4,445409,vowelstep1.wav,None,1000,25,533423,345,89.285
D,4,445409,sinestep5.wav,None,1000,25,535423,345,91.285
D,4,445409,sinestep5.wav,None,1000,25,537423,355,93.285
D,4,445409,vowelstep3.wav,None,1000,25,539423,335,95.285
D,4,445409,silence.wav,None,1000,25,541423,335,97.285
D,4,445409,sinestep1.wav,None,1000,25,543424,334,99.285
D,4,445409,sinestep1.wav,None,1000,25,545424,333,101.285
D,4,445409,sinestep3.wav,None,1000,25,547424,344,103.285
D,4,445409,vowelstep1.wav,None,1000,25,549423,340,105.285
D,4,445409,sinestep7.wav,None,1000,25,551423,344,107.285
D,4,445409,vowelstep3.wav,None,1000,25,553423,324,109.285
D,4,445409,silence.wav,None,1000,25,555423,334,111.285
D,4,445409,vowelstep5.wav,None,1000,25,557423,334,113.285
D,4,445409,vowelstep1.wav,None,1000,25,559424,343,115.285
D,4,445409,vowelstep1_catch.wav,2,80,25,561424,341,117.285
D,4,445409,vowelstep7.wav,None,1000,25,563424,1261,119.285
D,4,445409,sinestep5.wav,None,1000,25,565424,341,121.285
D,4,445409,vowelstep7.wav,None,1000,25,567424,333,123.285
D,4,445409,sinestep1.wav,None,1000,25,569424,333,125.285
D,4,445409,sinestep1.wav,None,1000,25,571424,333,127.285
D,4,445409,vowelstep3.wav,None,1000,25,573424,332,129.285
D,4,445409,sinestep1.wav,None,1000,25,575423,343,131.285
D,4,445409,silence.wav,None,1000,25,577424,342,133.285
D,4,445409,sinestep3.wav,None,1000,25,579424,342,135.285
D,4,445409,silence.wav,None,1000,25,581424,322,137.285
D,4,445409,vowelstep3.wav,None,1000,25,583424,332,139.285
D,4,445409,vowelstep5.wav,None,1000,25,585424,331,141.285
D,4,445409,silence.wav,None,1000,25,587424,342,143.285
D,4,445409,sinestep5.wav,None,1000,25,589424,342,145.285
D,4,445409,sinestep5.wav,None,1000,25,591424,342,147.285
D,4,445409,sinestep1.wav,None,1000,25,593424,342,149.285
D,4,445409,vowelstep5.wav,None,1000,25,595425,352,151.285
D,4,445409,vowelstep5.wav,None,1000,25,597425,331,153.285
D,4,445409,sinestep1_catch.wav,2,59,25,599424,332,155.285
D,4,445409,sinestep5.wav,None,1000,25,601424,1270,157.285
D,4,445409,vowelstep3.wav,None,1000,25,603424,339,159.285
D,4,445409,vowelstep7.wav,None,1000,25,605424,340,161.285
D,4,445409,vowelstep3.wav,None,1000,25,607424,341,163.285
D,4,445409,sinestep3.wav,None,1000,25,609424,350,165.285
D,4,445409,sinestep1.wav,None,1000,25,611424,328,167.285
D,4,445409,silence.wav,None,1000,25,613425,329,169.285
D,4,445409,sinestep1.wav,None,1000,25,615425,329,171.285
D,4,445409,vowelstep1.wav,None,1000,25,617425,339,173.285
D,4,445409,vowelstep3.wav,None,1000,25,619425,340,175.285
D,4,445409,silence.wav,None,1000,25,621425,341,177.285
D,4,445409,sinestep7.wav,None,1000,25,623424,349,179.285
D,4,445409,silence.wav,None,1000,25,625424,331,181.285
D,4,445409,vowelstep7.wav,None,1000,25,627424,330,183.285
D,4,445409,sinestep3.wav,None,1000,25,629425,329,185.285
D,4,445409,vowelstep1.wav,None,1000,25,631425,339,187.285
D,4,445409,sinestep7.wav,None,1000,25,633425,338,189.285
D,4,445409,silence.wav,None,1000,25,635425,339,191.285
D,4,445409,sinestep1.wav,None,1000,25,637425,339,193.285
D,4,445409,sinestep3.wav,None,1000,25,639425,328,195.285
D,4,445409,sinestep5.wav,None,1000,25,641425,329,197.285
D,4,445409,vowelstep3.wav,None,1000,25,643425,326,199.285
D,4,445409,sinestep5.wav,None,1000,25,645425,328,201.285
D,4,445409,sinestep5.wav,None,1000,25,647425,338,203.285
D,4,445409,sinestep3.wav,None,1000,25,649425,338,205.285
D,4,445409,sinestep3.wav,None,1000,25,651425,347,207.285
D,4,445409,sinestep5.wav,None,1000,25,653425,327,209.285
D,4,445409,sinestep3_catch.wav,2,302,25,655425,327,211.285
D,4,445409,vowelstep7.wav,None,1000,25,657425,1024,213.285
D,4,445409,sinestep1.wav,None,1000,25,659425,338,215.285
D,4,445409,sinestep7.wav,None,1000,25,661425,338,217.285
D,4,445409,vowelstep1.wav,None,1000,25,663425,337,219.285
D,4,445409,sinestep5.wav,None,1000,25,665426,338,221.285
D,4,445409,silence.wav,None,1000,25,667426,327,223.285
D,4,445409,sinestep5_catch.wav,2,6,25,669426,326,225.285
D,4,445409,sinestep5.wav,None,1000,25,671425,1319,227.285
D,4,445409,silence.wav,None,1000,25,673425,324,229.285
D,4,445409,vowelstep7.wav,None,1000,25,675425,336,231.285
D,4,445409,sinestep3.wav,None,1000,25,677425,337,233.285
D,4,445409,vowelstep5.wav,None,1000,25,679425,346,235.285
D,4,445409,vowelstep7.wav,None,1000,25,681426,343,237.285
D,4,445409,vowelstep5.wav,None,1000,25,683426,324,239.285
D,4,445409,silence.wav,None,1000,25,685426,325,241.285
D,4,445409,silence.wav,None,1000,25,687426,326,243.285
D,4,445409,silence.wav,None,1000,25,689426,336,245.285
D,4,445409,sinestep7.wav,None,1000,25,691426,336,247.285
D,4,445409,sinestep5.wav,None,1000,25,693426,346,249.285
D,4,445409,sinestep7_catch.wav,2,71,25,695425,345,251.285
D,4,445409,vowelstep1.wav,None,1000,25,697425,1248,253.285
D,4,445409,vowelstep1.wav,None,1000,25,699426,325,255.285
D,4,445409,vowelstep3.wav,None,1000,25,701426,325,257.285
D,4,445409,silence.wav,None,1000,25,703426,335,259.285
D,4,445409,sinestep5.wav,None,1000,25,705426,334,261.285
D,4,445409,vowelstep7.wav,None,1000,25,707426,334,263.285
D,4,445409,vowelstep3.wav,None,1000,25,709426,344,265.285
D,4,445409,vowelstep7.wav,None,1000,25,711426,324,267.285
D,4,445409,vowelstep5.wav,None,1000,25,713426,324,269.285
D,4,445409,sinestep1.wav,None,1000,25,715426,325,271.285
D,4,445409,sinestep7.wav,None,1000,25,717427,334,273.285
D,4,445409,sinestep3.wav,None,1000,25,719426,333,275.285
D,4,445409,silence.wav,None,1000,25,721426,343,277.285
D,4,445409,sinestep7.wav,None,1000,25,723426,343,279.285
D,4,445409,vowelstep5.wav,None,1000,25,725426,323,281.285
D,4,445409,sinestep1.wav,None,1000,25,727426,324,283.285
D,4,445409,vowelstep1.wav,None,1000,25,729426,322,285.285
D,4,445409,sinestep1.wav,None,1000,25,731426,334,287.285
D,4,445409,vowelstep5.wav,None,1000,25,733426,333,289.285
D,4,445409,silence.wav,None,1000,25,735427,333,291.285
D,4,445409,sinestep3.wav,None,1000,25,737427,342,293.285
D,4,445409,vowelstep5.wav,None,1000,25,739427,319,295.285
D,4,445409,silence.wav,None,1000,25,741427,320,297.285
D,4,445409,sinestep3.wav,None,1000,25,743427,322,299.285
D,4,445409,vowelstep7.wav,None,1000,25,745426,333,301.285
D,4,445409,sinestep7_catch.wav,2,250,25,747426,331,303.285
D,4,445409,sinestep5_catch.wav,2,64,25,749426,1082,305.285
D,4,445409,sinestep3.wav,None,1000,25,751427,1278,307.285
D,4,445409,vowelstep5.wav,None,1000,25,753427,322,309.285
D,4,445409,silence.wav,None,1000,25,755427,321,311.285
D,4,445409,sinestep3_catch.wav,2,1,25,757427,323,313.285
D,4,445409,silence.wav,None,1000,25,759427,1324,315.285
D,4,445409,vowelstep7.wav,None,1000,25,761427,332,317.285
D,4,445409,silence.wav,None,1000,25,763427,330,319.285
J,5,827323,sinestep5_catch.wav,2,706,25,827328,0,1.285
J,5,827323,sinestep5.wav,None,1000,25,829328,645,3.285
J,5,827323,sinestep3.wav,None,1000,25,831328,350,5.285
J,5,827323,sinestep1.wav,None,1000,25,833328,341,7.285
J,5,827323,sinestep7.wav,None,1000,25,835328,341,9.285
J,5,827323,vowelstep3.wav,None,1000,25,837328,340,11.285
J,5,827323,sinestep1.wav,None,1000,25,839329,339,13.285
J,5,827323,vowelstep5.wav,None,1000,25,841328,350,15.285
J,5,827323,vowelstep3.wav,None,1000,25,843328,350,17.285
J,5,827323,vowelstep1.wav,None,1000,25,845328,350,19.285
J,5,827323,vowelstep1.wav,None,1000,25,847328,330,21.285
J,5,827323,sinestep3.wav,None,1000,25,849328,340,23.285
J,5,827323,silence.wav,None,1000,25,851328,340,25.285
J,5,827323,vowelstep7.wav,None,1000,25,853328,339,27.285
J,5,827323,sinestep3.wav,None,1000,25,855328,351,29.285
J,5,827323,sinestep7.wav,None,1000,25,857329,350,31.285
J,5,827323,silence.wav,None,1000,25,859329,349,33.285
J,5,827323,vowelstep5.wav,None,1000,25,861329,330,35.285
J,5,827323,sinestep1.wav,None,1000,25,863329,339,37.285
J,5,827323,sinestep1_catch.wav,2,35,25,865328,338,39.285
J,5,827323,sinestep7.wav,None,1000,25,867328,1301,41.285
J,5,827323,vowelstep7.wav,None,1000,25,869328,338,43.285
J,5,827323,sinestep3_catch.wav,2,4,25,871328,346,45.285
J,5,827323,vowelstep3.wav,None,1000,25,873328,1337,47.285
J,5,827323,vowelstep7.wav,None,1000,25,875329,359,49.285
J,5,827323,sinestep1.wav,None,1000,25,877329,337,51.285
J,5,827323,vowelstep3.wav,None,1000,25,879329,338,53.285
J,5,827323,vowelstep1.wav,None,1000,25,881329,338,55.285
J,5,827323,sinestep5.wav,None,1000,25,883329,337,57.285
J,5,827323,sinestep5_catch.wav,None,1000,25,885329,348,59.285
J,5,827323,sinestep5.wav,None,1000,25,887329,348,61.285
J,5,827323,vowelstep7.wav,None,1000,25,889328,358,63.285
J,5,827323,sinestep7.wav,None,1000,25,891329,328,65.285
J,5,827323,vowelstep1.wav,None,1000,25,893329,337,67.285
J,5,827323,sinestep7_catch.wav,None,1000,25,895329,337,69.285
J,5,827323,silence.wav,None,1000,25,897329,337,71.285
J,5,827323,vowelstep5.wav,None,1000,25,899329,346,73.285
J,5,827323,sinestep5.wav,None,1000,25,901329,346,75.285
J,5,827323,sinestep5.wav,None,1000,25,903329,347,77.285
J,5,827323,vowelstep3.wav,None,1000,25,905329,357,79.285
J,5,827323,vowelstep5.wav,None,1000,25,907329,335,81.285
J,5,827323,sinestep3.wav,None,1000,25,909330,336,83.285
J,5,827323,silence.wav,None,1000,25,911330,336,85.285
J,5,827323,vowelstep3.wav,None,1000,25,913329,345,87.285
J,5,827323,vowelstep7.wav,None,1000,25,915329,343,89.285
J,5,827323,silence.wav,None,1000,25,917329,354,91.285
J,5,827323,sinestep3.wav,None,1000,25,919329,322,93.285
J,5,827323,silence.wav,None,1000,25,921329,336,95.285
J,5,827323,sinestep1.wav,None,1000,25,923329,335,97.285
J,5,827323,sinestep5_catch.wav,2,115,25,925329,346,99.285
J,5,827323,sinestep7.wav,None,1000,25,927330,1231,101.285
J,5,827323,sinestep5.wav,None,1000,25,929330,344,103.285
J,5,827323,sinestep5.wav,None,1000,25,931330,345,105.285
J,5,827323,sinestep3.wav,None,1000,25,933330,355,107.285
J,5,827323,sinestep3_catch.wav,2,6,25,935330,335,109.285
J,5,827323,sinestep3.wav,None,1000,25,937330,1319,111.285
J,5,827323,silence.wav,None,1000,25,939329,335,113.285
J,5,827323,sinestep1.wav,None,1000,25,941329,344,115.285
J,5,827323,silence.wav,None,1000,25,943329,344,117.285
J,5,827323,vowelstep3.wav,None,1000,25,945330,344,119.285
J,5,827323,vowelstep5.wav,None,1000,25,947330,354,121.285
J,5,827323,vowelstep7.wav,None,1000,25,949330,334,123.285
J,5,827323,silence.wav,None,1000,25,951330,334,125.285
J,5,827323,sinestep1.wav,None,1000,25,953330,333,127.285
J,5,827323,sinestep3.wav,None,1000,25,955330,344,129.285
J,5,827323,sinestep7.wav,None,1000,25,957330,344,131.285
J,5,827323,silence.wav,None,1000,25,959330,343,133.285
J,5,827323,sinestep1.wav,None,1000,25,961330,354,135.285
J,5,827323,vowelstep7.wav,None,1000,25,963330,333,137.285
J,5,827323,sinestep5.wav,None,1000,25,965330,332,139.285
J,5,827323,vowelstep1.wav,None,1000,25,967330,332,141.285
J,5,827323,vowelstep7.wav,None,1000,25,969330,342,143.285
J,5,827323,vowelstep3.wav,None,1000,25,971330,343,145.285
J,5,827323,vowelstep3.wav,None,1000,25,973330,343,147.285
J,5,827323,sinestep7.wav,None,1000,25,975330,342,149.285
J,5,827323,vowelstep5.wav,None,1000,25,977330,333,151.285
J,5,827323,silence.wav,None,1000,25,979331,333,153.285
J,5,827323,sinestep1.wav,None,1000,25,981331,331,155.285
J,5,827323,sinestep3.wav,None,1000,25,983331,332,157.285
J,5,827323,silence.wav,None,1000,25,985330,341,159.285
J,5,827323,sinestep1.wav,None,1000,25,987330,341,161.285
J,5,827323,vowelstep7.wav,None,1000,25,989330,352,163.285
J,5,827323,vowelstep7.wav,None,1000,25,991330,331,165.285
J,5,827323,sinestep1_catch.wav,2,71,25,993330,332,167.285
J,5,827323,vowelstep1_catch.wav,2,69,25,995330,1256,169.285
J,5,827323,vowelstep1.wav,None,1000,25,997331,1272,171.285
J,5,827323,vowelstep7.wav,None,1000,25,999331,337,173.285
J,5,827323,sinestep1.wav,None,1000,25,1001331,340,175.285
J,5,827323,vowelstep5.wav,None,1000,25,1003331,350,177.285
J,5,827323,vowelstep5.wav,None,1000,25,1005331,331,179.285
J,5,827323,sinestep5.wav,None,1000,25,1007331,330,181.285
J,5,827323,sinestep7.wav,None,1000,25,1009331,330,183.285
J,5,827323,sinestep7.wav,None,1000,25,1011330,338,185.285
J,5,827323,sinestep1.wav,None,1000,25,1013330,341,187.285
J,5,827323,vowelstep1.wav,None,1000,25,1015331,339,189.285
J,5,827323,silence.wav,None,1000,25,1017331,349,191.285
J,5,827323,sinestep5.wav,None,1000,25,1019331,349,193.285
J,5,827323,vowelstep5.wav,None,1000,25,1021331,350,195.285
J,5,827323,vowelstep1.wav,None,1000,25,1023331,348,197.285
J,5,827323,vowelstep1.wav,None,1000,25,1025331,340,199.285
J,5,827323,sinestep3.wav,None,1000,25,1027331,339,201.285
J,5,827323,sinestep3.wav,None,1000,25,1029331,339,203.285
J,5,827323,silence.wav,None,1000,25,1031332,340,205.285
J,5,827323,sinestep5.wav,None,1000,25,1033332,348,207.285
J,5,827323,vowelstep1.wav,None,1000,25,1035331,349,209.285
J,5,827323,vowelstep5.wav,None,1000,25,1037331,348,211.285
J,5,827323,vowelstep3.wav,None,1000,25,1039331,358,213.285
J,5,827323,vowelstep3.wav,None,1000,25,1041331,338,215.285
J,5,827323,silence.wav,None,1000,25,1043331,337,217.285
J,5,827323,sinestep1.wav,None,1000,25,1045331,338,219.285
J,5,827323,vowelstep3.wav,None,1000,25,1047331,348,221.285
J,5,827323,sinestep7.wav,None,1000,25,1049332,348,223.285
J,5,827323,vowelstep7.wav,None,1000,25,1051332,348,225.285
J,5,827323,silence.wav,None,1000,25,1053332,324,227.285
J,5,827323,vowelstep5.wav,None,1000,25,1055332,337,229.285
J,5,827323,silence.wav,None,1000,25,1057332,337,231.285
J,5,827323,sinestep3.wav,None,1000,25,1059331,337,233.285
J,5,827323,vowelstep5.wav,None,1000,25,1061331,347,235.285
J,5,827323,vowelstep3.wav,None,1000,25,1063331,346,237.285
J,5,827323,vowelstep5.wav,None,1000,25,1065331,348,239.285
J,5,827323,vowelstep7.wav,None,1000,25,1067332,357,241.285
J,5,827323,vowelstep1.wav,None,1000,25,1069332,334,243.285
J,5,827323,sinestep7.wav,None,1000,25,1071332,336,245.285
J,5,827323,sinestep7.wav,None,1000,25,1073332,336,247.285
J,5,827323,silence.wav,None,1000,25,1075332,336,249.285
J,5,827323,vowelstep1.wav,None,1000,25,1077332,346,251.285
J,5,827323,vowelstep3_catch.wav,2,60,25,1079332,344,253.285
J,5,827323,vowelstep1.wav,None,1000,25,1081332,1296,255.285
J,5,827323,vowelstep5_catch.wav,2,19,25,1083331,326,257.285
J,5,827323,silence.wav,None,1000,25,1085332,1310,259.285
J,5,827323,sinestep5.wav,None,1000,25,1087332,336,261.285
J,5,827323,vowelstep1.wav,None,1000,25,1089332,338,263.285
J,5,827323,sinestep5.wav,None,1000,25,1091332,346,265.285
J,5,827323,vowelstep3.wav,None,1000,25,1093332,342,267.285
J,5,827323,sinestep5.wav,None,1000,25,1095332,355,269.285
J,5,827323,sinestep7.wav,None,1000,25,1097332,335,271.285
J,5,827323,silence.wav,None,1000,25,1099332,332,273.285
J,5,827323,vowelstep7_catch.wav,2,175,25,1101333,333,275.285
J,5,827323,sinestep3.wav,None,1000,25,1103333,1168,277.285
J,5,827323,vowelstep5.wav,None,1000,25,1105333,344,279.285
J,5,827323,silence.wav,None,1000,25,1107332,345,281.285
J,5,827323,silence.wav,None,1000,25,1109332,355,283.285
J,5,827323,silence.wav,None,1000,25,1111332,355,285.285
J,5,827323,vowelstep7.wav,None,1000,25,1113332,334,287.285
J,5,827323,sinestep3.wav,None,1000,25,1115332,334,289.285
J,5,827323,vowelstep5_catch.wav,2,149,25,1117332,330,291.285
J,5,827323,silence.wav,None,1000,25,1119333,1194,293.285
J,5,827323,sinestep7.wav,None,1000,25,1121333,342,295.285
J,5,827323,vowelstep1.wav,None,1000,25,1123333,353,297.285
J,5,827323,silence.wav,None,1000,25,1125333,323,299.285
J,5,827323,sinestep1.wav,None,1000,25,1127333,333,301.285
J,5,827323,sinestep5.wav,None,1000,25,1129333,333,303.285
J,5,827323,vowelstep5.wav,None,1000,25,1131332,344,305.285
J,5,827323,vowelstep3.wav,None,1000,25,1133332,343,307.285
J,5,827323,sinestep7.wav,None,1000,25,1135332,341,309.285
J,5,827323,vowelstep7.wav,None,1000,25,1137333,343,311.285
J,5,827323,vowelstep3_catch.wav,2,34,25,1139333,352,313.285
J,5,827323,vowelstep1_catch.wav,None,1000,25,1141333,1298,315.285
J,5,827323,sinestep3.wav,None,1000,25,1143333,333,317.285
J,5,827323,sinestep1.wav,None,1000,25,1145333,343,319.285
A,6,1203656,sinestep5_catch.wav,2,373,25,1203667,0,1.285
A,6,1203656,vowelstep1.wav,None,1000,25,1205667,969,3.285
A,6,1203656,vowelstep3.wav,None,1000,25,1207668,331,5.285
A,6,1203656,sinestep1.wav,None,1000,25,1209668,330,7.285
A,6,1203656,sinestep5_catch.wav,2,10,25,1211668,330,9.285
A,6,1203656,sinestep7.wav,None,1000,25,1213667,1325,11.285
A,6,1203656,sinestep3.wav,None,1000,25,1215667,341,13.285
A,6,1203656,silence.wav,None,1000,25,1217667,341,15.285
A,6,1203656,vowelstep7.wav,None,1000,25,1219667,341,17.285
A,6,1203656,sinestep7.wav,None,1000,25,1221667,321,19.285
A,6,1203656,vowelstep5_catch.wav,2,32,25,1223668,331,21.285
A,6,1203656,sinestep7.wav,None,1000,25,1225668,1294,23.285
A,6,1203656,sinestep3.wav,None,1000,25,1227668,328,25.285
A,6,1203656,silence.wav,None,1000,25,1229668,340,27.285
A,6,1203656,sinestep3.wav,None,1000,25,1231668,339,29.285
A,6,1203656,sinestep5_catch.wav,2,23,25,1233668,340,31.285
A,6,1203656,sinestep1.wav,None,1000,25,1235668,1296,33.285
A,6,1203656,sinestep1.wav,None,1000,25,1237667,329,35.285
A,6,1203656,sinestep5.wav,None,1000,25,1239667,330,37.285
A,6,1203656,vowelstep3.wav,None,1000,25,1241668,330,39.285
A,6,1203656,vowelstep5.wav,None,1000,25,1243668,339,41.285
A,6,1203656,vowelstep3.wav,None,1000,25,1245668,339,43.285
A,6,1203656,vowelstep1.wav,None,1000,25,1247668,339,45.285
A,6,1203656,vowelstep3.wav,None,1000,25,1249668,349,47.285
A,6,1203656,sinestep3.wav,None,1000,25,1251668,330,49.285
A,6,1203656,sinestep7.wav,None,1000,25,1253668,329,51.285
A,6,1203656,sinestep5.wav,None,1000,25,1255668,329,53.285
A,6,1203656,vowelstep7_catch.wav,2,102,25,1257668,339,55.285
A,6,1203656,silence.wav,None,1000,25,1259669,1235,57.285
A,6,1203656,vowelstep3.wav,None,1000,25,1261668,338,59.285
A,6,1203656,vowelstep1.wav,None,1000,25,1263668,318,61.285
A,6,1203656,silence.wav,None,1000,25,1265668,328,63.285
A,6,1203656,sinestep3.wav,None,1000,25,1267668,328,65.285
A,6,1203656,sinestep7.wav,None,1000,25,1269668,328,67.285
A,6,1203656,sinestep5.wav,None,1000,25,1271668,338,69.285
A,6,1203656,sinestep5.wav,None,1000,25,1273668,337,71.285
A,6,1203656,sinestep7.wav,None,1000,25,1275668,335,73.285
A,6,1203656,sinestep1.wav,None,1000,25,1277669,336,75.285
A,6,1203656,sinestep5.wav,None,1000,25,1279669,325,77.285
A,6,1203656,vowelstep1.wav,2,85,25,1281669,326,79.285
A,6,1203656,sinestep1.wav,None,1000,25,1283669,1239,81.285
A,6,1203656,vowelstep5.wav,None,1000,25,1285668,327,83.285
A,6,1203656,sinestep1.wav,None,1000,25,1287668,335,85.285
A,6,1203656,silence.wav,None,1000,25,1289668,336,87.285
A,6,1203656,vowelstep1.wav,None,1000,25,1291668,346,89.285
A,6,1203656,sinestep3.wav,None,1000,25,1293669,328,91.285
A,6,1203656,vowelstep5.wav,None,1000,25,1295669,325,93.285
A,6,1203656,vowelstep5.wav,None,1000,25,1297669,326,95.285
A,6,1203656,vowelstep5.wav,None,1000,25,1299669,334,97.285
A,6,1203656,vowelstep7.wav,None,1000,25,1301669,336,99.285
A,6,1203656,vowelstep3.wav,None,1000,25,1303669,335,101.285
A,6,1203656,sinestep1.wav,None,1000,25,1305669,345,103.285
A,6,1203656,sinestep1.wav,None,1000,25,1307669,326,105.285
A,6,1203656,vowelstep7.wav,None,1000,25,1309668,325,107.285
A,6,1203656,vowelstep1.wav,None,1000,25,1311669,325,109.285
A,6,1203656,vowelstep7.wav,None,1000,25,1313669,326,111.285
A,6,1203656,silence.wav,None,1000,25,1315669,335,113.285
A,6,1203656,sinestep1.wav,None,1000,25,1317669,334,115.285
A,6,1203656,vowelstep1.wav,None,1000,25,1319669,334,117.285
A,6,1203656,silence.wav,None,1000,25,1321669,344,119.285
A,6,1203656,vowelstep1.wav,None,1000,25,1323669,325,121.285
A,6,1203656,vowelstep3.wav,None,1000,25,1325669,325,123.285
A,6,1203656,vowelstep1.wav,None,1000,25,1327669,324,125.285
A,6,1203656,sinestep7.wav,None,1000,25,1329670,335,127.285
A,6,1203656,silence.wav,None,1000,25,1331670,334,129.285
A,6,1203656,vowelstep1.wav,None,1000,25,1333669,334,131.285
A,6,1203656,silence.wav,None,1000,25,1335669,342,133.285
A,6,1203656,sinestep7.wav,None,1000,25,1337669,343,135.285
A,6,1203656,vowelstep5.wav,None,1000,25,1339669,343,137.285
A,6,1203656,sinestep7.wav,None,1000,25,1341669,352,139.285
A,6,1203656,sinestep3.wav,None,1000,25,1343669,333,141.285
A,6,1203656,vowelstep5.wav,None,1000,25,1345669,334,143.285
A,6,1203656,silence.wav,None,1000,25,1347670,333,145.285
A,6,1203656,sinestep3.wav,None,1000,25,1349670,342,147.285
A,6,1203656,sinestep5.wav,None,1000,25,1351670,342,149.285
A,6,1203656,sinestep3.wav,None,1000,25,1353670,323,151.285
A,6,1203656,vowelstep3.wav,None,1000,25,1355670,322,153.285
A,6,1203656,sinestep3.wav,None,1000,25,1357669,333,155.285
A,6,1203656,vowelstep7_catch.wav,2,156,25,1359669,332,157.285
A,6,1203656,vowelstep7.wav,None,1000,25,1361669,1176,159.285
A,6,1203656,vowelstep5.wav,None,1000,25,1363670,341,161.285
A,6,1203656,sinestep5.wav,None,1000,25,1365670,342,163.285
A,6,1203656,silence.wav,None,1000,25,1367670,340,165.285
A,6,1203656,sinestep5.wav,None,1000,25,1369670,351,167.285
A,6,1203656,vowelstep5_catch.wav,2,35,25,1371670,331,169.285
A,6,1203656,silence.wav,None,1000,25,1373670,1295,171.285
A,6,1203656,sinestep7.wav,None,1000,25,1375670,331,173.285
A,6,1203656,sinestep5.wav,None,1000,25,1377670,342,175.285
A,6,1203656,sinestep7.wav,None,1000,25,1379670,342,177.285
A,6,1203656,vowelstep3.wav,None,1000,25,1381670,341,179.285
A,6,1203656,sinestep5.wav,None,1000,25,1383670,350,181.285
A,6,1203656,vowelstep1.wav,None,1000,25,1385670,331,183.285
A,6,1203656,vowelstep5.wav,None,1000,25,1387670,330,185.285
A,6,1203656,sinestep5.wav,None,1000,25,1389670,331,187.285
A,6,1203656,vowelstep1.wav,None,1000,25,1391670,338,189.285
A,6,1203656,silence.wav,None,1000,25,1393670,341,191.285
A,6,1203656,sinestep1.wav,None,1000,25,1395670,340,193.285
A,6,1203656,vowelstep5.wav,None,1000,25,1397670,351,195.285
A,6,1203656,sinestep3.wav,None,1000,25,1399671,330,197.285
A,6,1203656,silence.wav,None,1000,25,1401671,329,199.285
A,6,1203656,vowelstep3.wav,None,1000,25,1403671,328,201.285
A,6,1203656,vowelstep3_catch.wav,2,50,25,1405670,339,203.285
A,6,1203656,vowelstep5.wav,None,1000,25,1407670,1281,205.285
A,6,1203656,vowelstep1_catch.wav,2,8,25,1409670,339,207.285
A,6,1203656,silence.wav,None,1000,25,1411670,1330,209.285
A,6,1203656,sinestep3.wav,None,1000,25,1413670,330,211.285
A,6,1203656,vowelstep5.wav,None,1000,25,1415670,329,213.285
A,6,1203656,silence.wav,None,1000,25,1417671,328,215.285
A,6,1203656,sinestep5.wav,None,1000,25,1419671,328,217.285
A,6,1203656,vowelstep7.wav,None,1000,25,1421671,338,219.285
A,6,1203656,silence.wav,None,1000,25,1423671,338,221.285
A,6,1203656,vowelstep3.wav,None,1000,25,1425671,338,223.285
A,6,1203656,sinestep7.wav,None,1000,25,1427671,319,225.285
A,6,1203656,silence.wav,None,1000,25,1429670,329,227.285
A,6,1203656,vowelstep3.wav,None,1000,25,1431670,325,229.285
A,6,1203656,vowelstep5.wav,None,1000,25,1433671,322,231.285
A,6,1203656,vowelstep7.wav,None,1000,25,1435671,337,233.285
A,6,1203656,vowelstep3.wav,None,1000,25,1437671,334,235.285
A,6,1203656,vowelstep5.wav,None,1000,25,1439671,334,237.285
A,6,1203656,sinestep1_catch.wav,2,78,25,1441671,327,239.285
A,6,1203656,sinestep3.wav,None,1000,25,1443671,1243,241.285
A,6,1203656,sinestep1.wav,None,1000,25,1445671,327,243.285
A,6,1203656,sinestep3_catch.wav,2,81,25,1447671,327,245.285
A,6,1203656,sinestep7.wav,None,1000,25,1449671,1253,247.285
A,6,1203656,vowelstep1.wav,None,1000,25,1451672,336,249.285
A,6,1203656,sinestep3.wav,None,1000,25,1453671,337,251.285
A,6,1203656,vowelstep7.wav,None,1000,25,1455671,345,253.285
A,6,1203656,silence.wav,None,1000,25,1457671,323,255.285
A,6,1203656,sinestep1.wav,None,1000,25,1459671,326,257.285
A,6,1203656,silence.wav,None,1000,25,1461671,323,259.285
A,6,1203656,vowelstep5.wav,None,1000,25,1463671,334,261.285
A,6,1203656,sinestep5_catch.wav,2,73,25,1465671,335,263.285
A,6,1203656,vowelstep7.wav,None,1000,25,1467671,1271,265.285
A,6,1203656,sinestep3.wav,None,1000,25,1469672,343,267.285
A,6,1203656,vowelstep1.wav,None,1000,25,1471672,321,269.285
A,6,1203656,vowelstep3.wav,None,1000,25,1473672,326,271.285
A,6,1203656,sinestep7_catch.wav,2,98,25,1475672,325,273.285
A,6,1203656,silence.wav,None,1000,25,1477672,1235,275.285
A,6,1203656,vowelstep7.wav,None,1000,25,1479671,335,277.285
A,6,1203656,sinestep7.wav,None,1000,25,1481671,334,279.285
A,6,1203656,sinestep1.wav,None,1000,25,1483671,345,281.285
A,6,1203656,vowelstep7.wav,None,1000,25,1485672,325,283.285
A,6,1203656,sinestep5.wav,None,1000,25,1487672,322,285.285
A,6,1203656,sinestep5.wav,None,1000,25,1489672,325,287.285
A,6,1203656,sinestep7_catch.wav,2,99,25,1491672,325,289.285
A,6,1203656,sinestep5.wav,None,1000,25,1493672,1230,291.285
A,6,1203656,silence.wav,None,1000,25,1495672,334,293.285
A,6,1203656,vowelstep3.wav,None,1000,25,1497672,344,295.285
A,6,1203656,silence.wav,None,1000,25,1499672,312,297.285
A,6,1203656,vowelstep1.wav,None,1000,25,1501672,324,299.285
A,6,1203656,sinestep1.wav,None,1000,25,1503672,323,301.285
A,6,1203656,sinestep7.wav,None,1000,25,1505672,334,303.285
A,6,1203656,vowelstep7.wav,None,1000,25,1507672,333,305.285
A,6,1203656,sinestep1_catch.wav,2,20,25,1509672,333,307.285
A,6,1203656,silence.wav,None,1000,25,1511672,1313,309.285
A,6,1203656,silence.wav,None,1000,25,1513672,323,311.285
A,6,1203656,vowelstep7.wav,None,1000,25,1515672,321,313.285
A,6,1203656,sinestep1.wav,None,1000,25,1517672,323,315.285
A,6,1203656,vowelstep7.wav,None,1000,25,1519672,333,317.285
A,6,1203656,vowelstep7.wav,None,1000,25,1521673,333,319.285
G,7,1582528,vowelstep3.wav,None,1000,25,1582540,0,1.285
G,7,1582528,vowelstep3.wav,None,1000,25,1584540,321,3.285
G,7,1582528,vowelstep7.wav,None,1000,25,1586540,331,5.285
G,7,1582528,vowelstep3.wav,None,1000,25,1588540,330,7.285
G,7,1582528,sinestep5.wav,None,1000,25,1590540,340,9.285
G,7,1582528,sinestep1_catch.wav,2,71,25,1592540,340,11.285
G,7,1582528,silence.wav,None,1000,25,1594540,1266,13.285
G,7,1582528,silence.wav,None,1000,25,1596540,339,15.285
G,7,1582528,vowelstep7.wav,None,1000,25,1598540,350,17.285
G,7,1582528,vowelstep1.wav,None,1000,25,1600540,330,19.285
G,7,1582528,silence.wav,None,1000,25,1602540,329,21.285
G,7,1582528,sinestep1.wav,None,1000,25,1604540,325,23.285
G,7,1582528,vowelstep7.wav,None,1000,25,1606540,339,25.285
G,7,1582528,sinestep5.wav,None,1000,25,1608541,338,27.285
G,7,1582528,sinestep5.wav,None,1000,25,1610541,339,29.285
G,7,1582528,sinestep3.wav,None,1000,25,1612541,319,31.285
G,7,1582528,vowelstep3.wav,None,1000,25,1614541,329,33.285
G,7,1582528,silence.wav,None,1000,25,1616540,328,35.285
G,7,1582528,vowelstep1.wav,None,1000,25,1618540,329,37.285
G,7,1582528,sinestep7.wav,None,1000,25,1620540,338,39.285
G,7,1582528,vowelstep5.wav,None,1000,25,1622540,338,41.285
G,7,1582528,vowelstep3.wav,None,1000,25,1624540,338,43.285
G,7,1582528,sinestep1.wav,None,1000,25,1626541,348,45.285
G,7,1582528,sinestep7.wav,None,1000,25,1628541,327,47.285
G,7,1582528,sinestep1.wav,None,1000,25,1630541,328,49.285
G,7,1582528,sinestep5.wav,None,1000,25,1632541,324,51.285
G,7,1582528,vowelstep1.wav,None,1000,25,1634541,337,53.285
G,7,1582528,silence.wav,None,1000,25,1636541,337,55.285
G,7,1582528,sinestep5.wav,None,1000,25,1638541,337,57.285
G,7,1582528,vowelstep1.wav,None,1000,25,1640540,347,59.285
G,7,1582528,vowelstep3.wav,None,1000,25,1642540,328,61.285
G,7,1582528,sinestep3.wav,None,1000,25,1644541,328,63.285
G,7,1582528,sinestep1.wav,None,1000,25,1646541,327,65.285
G,7,1582528,vowelstep5.wav,None,1000,25,1648541,336,67.285
G,7,1582528,vowelstep3.wav,None,1000,25,1650541,337,69.285
G,7,1582528,vowelstep5.wav,None,1000,25,1652541,336,71.285
G,7,1582528,vowelstep7.wav,None,1000,25,1654541,347,73.285
G,7,1582528,vowelstep5.wav,None,1000,25,1656541,326,75.285
G,7,1582528,vowelstep5.wav,None,1000,25,1658541,324,77.285
G,7,1582528,sinestep3.wav,None,1000,25,1660542,327,79.285
G,7,1582528,sinestep3_catch.wav,2,153,25,1662542,334,81.285
G,7,1582528,sinestep5_catch.wav,None,1000,25,1664542,1180,83.285
G,7,1582528,sinestep7.wav,None,1000,25,1666541,335,85.285
G,7,1582528,sinestep7_catch.wav,None,1000,25,1668541,345,87.285
G,7,1582528,sinestep7.wav,None,1000,25,1670541,325,89.285
G,7,1582528,vowelstep1.wav,None,1000,25,1672541,325,91.285
G,7,1582528,vowelstep7.wav,None,1000,25,1674541,326,93.285
G,7,1582528,vowelstep3.wav,None,1000,25,1676541,325,95.285
G,7,1582528,sinestep3.wav,None,1000,25,1678542,335,97.285
G,7,1582528,sinestep1.wav,None,1000,25,1680542,334,99.285
G,7,1582528,sinestep1.wav,None,1000,25,1682542,344,101.285
G,7,1582528,sinestep5.wav,None,1000,25,1684542,315,103.285
G,7,1582528,vowelstep7.wav,None,1000,25,1686542,324,105.285
G,7,1582528,silence.wav,None,1000,25,1688541,322,107.285
G,7,1582528,sinestep3.wav,None,1000,25,1690541,335,109.285
G,7,1582528,vowelstep1.wav,None,1000,25,1692541,334,111.285
G,7,1582528,sinestep3.wav,None,1000,25,1694541,335,113.285
G,7,1582528,sinestep3.wav,None,1000,25,1696542,334,115.285
G,7,1582528,sinestep7.wav,None,1000,25,1698542,323,117.285
G,7,1582528,silence.wav,None,1000,25,1700542,323,119.285
G,7,1582528,vowelstep5.wav,None,1000,25,1702542,323,121.285
G,7,1582528,sinestep1_catch.wav,2,98,25,1704542,324,123.285
G,7,1582528,silence.wav,None,1000,25,1706542,1231,125.285
G,7,1582528,sinestep5.wav,None,1000,25,1708542,333,127.285
G,7,1582528,sinestep7.wav,None,1000,25,1710542,344,129.285
G,7,1582528,sinestep3.wav,None,1000,25,1712542,323,131.285
G,7,1582528,sinestep3.wav,None,1000,25,1714542,322,133.285
G,7,1582528,vowelstep5.wav,None,1000,25,1716542,322,135.285
G,7,1582528,sinestep3.wav,None,1000,25,1718542,330,137.285
G,7,1582528,sinestep3_catch.wav,2,11,25,1720542,332,139.285
G,7,1582528,vowelstep1.wav,None,1000,25,1722542,1313,141.285
G,7,1582528,vowelstep1.wav,None,1000,25,1724542,332,143.285
G,7,1582528,sinestep5.wav,None,1000,25,1726542,322,145.285
G,7,1582528,silence.wav,None,1000,25,1728542,322,147.285
G,7,1582528,sinestep3.wav,None,1000,25,1730543,323,149.285
G,7,1582528,silence.wav,None,1000,25,1732543,321,151.285
G,7,1582528,vowelstep3.wav,None,1000,25,1734543,331,153.285
G,7,1582528,sinestep5.wav,None,1000,25,1736542,331,155.285
G,7,1582528,vowelstep7.wav,None,1000,25,1738542,331,157.285
G,7,1582528,silence.wav,None,1000,25,1740542,342,159.285
G,7,1582528,sinestep5_catch.wav,None,1000,25,1742542,341,161.285
G,7,1582528,vowelstep5.wav,None,1000,25,1744542,351,163.285
G,7,1582528,silence.wav,None,1000,25,1746542,318,165.285
G,7,1582528,vowelstep7.wav,None,1000,25,1748543,331,167.285
G,7,1582528,vowelstep1.wav,None,1000,25,1750543,329,169.285
G,7,1582528,vowelstep1.wav,None,1000,25,1752543,330,171.285
G,7,1582528,vowelstep1.wav,None,1000,25,1754543,340,173.285
G,7,1582528,sinestep5.wav,None,1000,25,1756543,340,175.285
G,7,1582528,vowelstep3.wav,None,1000,25,1758543,340,177.285
G,7,1582528,sinestep1.wav,None,1000,25,1760542,320,179.285
G,7,1582528,vowelstep1.wav,None,1000,25,1762542,330,181.285
G,7,1582528,sinestep1.wav,None,1000,25,1764542,330,183.285
G,7,1582528,sinestep7.wav,None,1000,25,1766543,330,185.285
G,7,1582528,sinestep7.wav,None,1000,25,1768543,329,187.285
G,7,1582528,sinestep3.wav,None,1000,25,1770543,339,189.285
G,7,1582528,sinestep5.wav,None,1000,25,1772543,338,191.285
G,7,1582528,silence.wav,None,1000,25,1774543,348,193.285
G,7,1582528,sinestep7_catch.wav,None,1000,25,1776543,329,195.285
G,7,1582528,vowelstep7_catch.wav,2,161,25,1778543,327,197.285
G,7,1582528,sinestep7.wav,None,1000,25,1780543,1166,199.285
G,7,1582528,silence.wav,None,1000,25,1782543,338,201.285
G,7,1582528,sinestep7.wav,None,1000,25,1784544,338,203.285
G,7,1582528,sinestep3.wav,None,1000,25,1786543,338,205.285
G,7,1582528,vowelstep7.wav,None,1000,25,1788543,348,207.285
G,7,1582528,sinestep1.wav,None,1000,25,1790543,329,209.285
G,7,1582528,silence.wav,None,1000,25,1792543,329,211.285
G,7,1582528,silence.wav,None,1000,25,1794543,328,213.285
G,7,1582528,vowelstep7.wav,None,1000,25,1796543,338,215.285
G,7,1582528,vowelstep5.wav,None,1000,25,1798543,337,217.285
G,7,1582528,sinestep7.wav,None,1000,25,1800544,338,219.285
G,7,1582528,vowelstep5.wav,None,1000,25,1802544,347,221.285
G,7,1582528,vowelstep5_catch.wav,2,120,25,1804544,314,223.285
G,7,1582528,vowelstep7.wav,None,1000,25,1806544,1201,225.285
G,7,1582528,silence.wav,None,1000,25,1808544,327,227.285
G,7,1582528,silence.wav,None,1000,25,1810543,336,229.285
G,7,1582528,sinestep1.wav,None,1000,25,1812543,337,231.285
G,7,1582528,silence.wav,None,1000,25,1814543,337,233.285
G,7,1582528,vowelstep7.wav,None,1000,25,1816543,334,235.285
G,7,1582528,vowelstep5.wav,None,1000,25,1818544,325,237.285
G,7,1582528,vowelstep3.wav,None,1000,25,1820544,326,239.285
G,7,1582528,vowelstep3_catch.wav,2,138,25,1822544,326,241.285
G,7,1582528,sinestep1.wav,None,1000,25,1824544,1197,243.285
G,7,1582528,silence.wav,None,1000,25,1826544,336,245.285
G,7,1582528,sinestep7.wav,None,1000,25,1828544,336,247.285
G,7,1582528,sinestep1.wav,None,1000,25,1830544,335,249.285
G,7,1582528,sinestep3.wav,None,1000,25,1832544,326,251.285
G,7,1582528,vowelstep3.wav,None,1000,25,1834543,325,253.285
G,7,1582528,vowelstep1_catch.wav,2,25,25,1836544,326,255.285
G,7,1582528,sinestep7.wav,None,1000,25,1838544,1298,257.285
G,7,1582528,silence.wav,None,1000,25,1840544,336,259.285
G,7,1582528,sinestep5.wav,None,1000,25,1842544,335,261.285
G,7,1582528,sinestep5.wav,None,1000,25,1844544,345,263.285
G,7,1582528,vowelstep5.wav,None,1000,25,1846544,311,265.285
G,7,1582528,sinestep5.wav,None,1000,25,1848544,325,267.285
G,7,1582528,sinestep7.wav,None,1000,25,1850544,322,269.285
G,7,1582528,silence.wav,None,1000,25,1852544,323,271.285
G,7,1582528,vowelstep7_catch.wav,2,173,25,1854545,334,273.285
G,7,1582528,vowelstep5.wav,None,1000,25,1856545,1158,275.285
G,7,1582528,silence.wav,None,1000,25,1858544,334,277.285
G,7,1582528,sinestep3.wav,None,1000,25,1860544,323,279.285
G,7,1582528,vowelstep5.wav,None,1000,25,1862544,323,281.285
G,7,1582528,silence.wav,None,1000,25,1864544,324,283.285
G,7,1582528,vowelstep1.wav,None,1000,25,1866544,322,285.285
G,7,1582528,sinestep1.wav,None,1000,25,1868544,334,287.285
G,7,1582528,vowelstep3.wav,None,1000,25,1870545,334,289.285
G,7,1582528,vowelstep7.wav,None,1000,25,1872545,341,291.285
G,7,1582528,vowelstep7.wav,None,1000,25,1874545,343,293.285
G,7,1582528,sinestep1.wav,None,1000,25,1876545,323,295.285
G,7,1582528,vowelstep5.wav,None,1000,25,1878545,323,297.285
G,7,1582528,silence.wav,None,1000,25,1880545,323,299.285
G,7,1582528,sinestep1.wav,None,1000,25,1882544,331,301.285
G,7,1582528,vowelstep7.wav,None,1000,25,1884544,333,303.285
G,7,1582528,vowelstep5_catch.wav,2,85,25,1886544,333,305.285
G,7,1582528,vowelstep3.wav,None,1000,25,1888545,1257,307.285
G,7,1582528,vowelstep3_catch.wav,2,180,25,1890545,319,309.285
G,7,1582528,sinestep7.wav,None,1000,25,1892545,1137,311.285
G,7,1582528,sinestep5.wav,None,1000,25,1894545,321,313.285
G,7,1582528,vowelstep1.wav,None,1000,25,1896545,331,315.285
G,7,1582528,vowelstep3.wav,None,1000,25,1898545,331,317.285
G,7,1582528,vowelstep1.wav,None,1000,25,1900545,332,319.285
B,8,1974409,vowelstep5.wav,None,1000,25,1974412,0,1.285
B,8,1974409,silence.wav,None,1000,25,1976413,338,3.285
B,8,1974409,sinestep7.wav,None,1000,25,1978413,337,5.285
B,8,1974409,vowelstep1_catch.wav,2,114,25,1980413,337,7.285
B,8,1974409,vowelstep7.wav,None,1000,25,1982413,1233,9.285
B,8,1974409,vowelstep3.wav,None,1000,25,1984413,346,11.285
B,8,1974409,vowelstep7.wav,None,1000,25,1986413,347,13.285
B,8,1974409,vowelstep5.wav,None,1000,25,1988429,347,15.285
B,8,1974409,vowelstep7.wav,None,1000,25,1990413,338,17.285
B,8,1974409,vowelstep3.wav,None,1000,25,1992413,337,19.285
B,8,1974409,silence.wav,None,1000,25,1994414,336,21.285
B,8,1974409,silence.wav,None,1000,25,1996413,347,23.285
B,8,1974409,sinestep5.wav,None,1000,25,1998413,345,25.285
B,8,1974409,sinestep1.wav,None,1000,25,2000413,346,27.285
B,8,1974409,vowelstep7.wav,None,1000,25,2002413,356,29.285
B,8,1974409,sinestep5.wav,None,1000,25,2004413,336,31.285
B,8,1974409,vowelstep1.wav,None,1000,25,2006413,336,33.285
B,8,1974409,vowelstep7.wav,None,1000,25,2008413,337,35.285
B,8,1974409,vowelstep3.wav,None,1000,25,2010414,346,37.285
B,8,1974409,sinestep5.wav,None,1000,25,2012414,346,39.285
B,8,1974409,vowelstep1.wav,None,1000,25,2014414,345,41.285
B,8,1974409,sinestep3.wav,None,1000,25,2016414,345,43.285
B,8,1974409,vowelstep5.wav,None,1000,25,2018414,335,45.285
B,8,1974409,vowelstep7.wav,None,1000,25,2020413,335,47.285
B,8,1974409,vowelstep3.wav,None,1000,25,2022413,334,49.285
B,8,1974409,sinestep7.wav,None,1000,25,2024413,345,51.285
B,8,1974409,sinestep3.wav,None,1000,25,2026413,345,53.285
B,8,1974409,sinestep1.wav,None,1000,25,2028414,345,55.285
B,8,1974409,sinestep1.wav,None,1000,25,2030414,344,57.285
B,8,1974409,sinestep5.wav,None,1000,25,2032414,334,59.285
B,8,1974409,vowelstep5.wav,None,1000,25,2034414,333,61.285
B,8,1974409,vowelstep3_catch.wav,2,150,25,2036414,334,63.285
B,8,1974409,vowelstep7.wav,None,1000,25,2038414,1183,65.285
B,8,1974409,sinestep1.wav,None,1000,25,2040414,345,67.285
B,8,1974409,vowelstep5.wav,None,1000,25,2042414,344,69.285
B,8,1974409,vowelstep5_catch.wav,2,85,25,2044413,352,71.285
B,8,1974409,vowelstep7.wav,None,1000,25,2046414,1238,73.285
B,8,1974409,sinestep3.wav,None,1000,25,2048414,333,75.285
B,8,1974409,vowelstep7_catch.wav,2,40,25,2050414,333,77.285
B,8,1974409,sinestep5.wav,None,1000,25,2052414,1297,79.285
B,8,1974409,vowelstep5.wav,None,1000,25,2054414,343,81.285
B,8,1974409,silence.wav,None,1000,25,2056414,344,83.285
B,8,1974409,silence.wav,None,1000,25,2058414,353,85.285
B,8,1974409,vowelstep3.wav,None,1000,25,2060414,352,87.285
B,8,1974409,silence.wav,None,1000,25,2062414,333,89.285
B,8,1974409,sinestep1.wav,None,1000,25,2064415,331,91.285
B,8,1974409,sinestep1.wav,None,1000,25,2066415,332,93.285
B,8,1974409,sinestep5.wav,None,1000,25,2068414,342,95.285
B,8,1974409,vowelstep7.wav,None,1000,25,2070414,342,97.285
B,8,1974409,sinestep5.wav,None,1000,25,2072414,351,99.285
B,8,1974409,sinestep5.wav,None,1000,25,2074414,352,101.285
B,8,1974409,silence.wav,None,1000,25,2076414,332,103.285
B,8,1974409,vowelstep1.wav,None,1000,25,2078414,331,105.285
B,8,1974409,silence.wav,None,1000,25,2080415,332,107.285
B,8,1974409,sinestep1.wav,None,1000,25,2082415,336,109.285
B,8,1974409,vowelstep7.wav,None,1000,25,2084415,341,111.285
B,8,1974409,silence.wav,None,1000,25,2086415,341,113.285
B,8,1974409,sinestep1.wav,None,1000,25,2088415,348,115.285
B,8,1974409,vowelstep3.wav,None,1000,25,2090415,331,117.285
B,8,1974409,vowelstep5.wav,None,1000,25,2092414,331,119.285
B,8,1974409,silence.wav,None,1000,25,2094414,331,121.285
B,8,1974409,sinestep3.wav,None,1000,25,2096414,341,123.285
B,8,1974409,sinestep5.wav,None,1000,25,2098415,340,125.285
B,8,1974409,silence.wav,None,1000,25,2100415,340,127.285
B,8,1974409,vowelstep5.wav,None,1000,25,2102415,350,129.285
B,8,1974409,sinestep3.wav,None,1000,25,2104415,330,131.285
B,8,1974409,sinestep5.wav,None,1000,25,2106415,329,133.285
B,8,1974409,sinestep5.wav,None,1000,25,2108415,330,135.285
B,8,1974409,sinestep7.wav,None,1000,25,2110415,339,137.285
B,8,1974409,sinestep7.wav,None,1000,25,2112415,340,139.285
B,8,1974409,vowelstep5.wav,None,1000,25,2114415,339,141.285
B,8,1974409,sinestep1.wav,None,1000,25,2116415,320,143.285
B,8,1974409,vowelstep7.wav,None,1000,25,2118415,329,145.285
B,8,1974409,sinestep7.wav,None,1000,25,2120415,329,147.285
B,8,1974409,vowelstep5.wav,None,1000,25,2122415,329,149.285
B,8,1974409,vowelstep1.wav,None,1000,25,2124415,339,151.285
B,8,1974409,sinestep3.wav,None,1000,25,2126415,339,153.285
B,8,1974409,silence.wav,None,1000,25,2128415,340,155.285
B,8,1974409,silence.wav,None,1000,25,2130415,349,157.285
B,8,1974409,sinestep7_catch.wav,2,28,25,2132415,329,159.285
B,8,1974409,vowelstep5.wav,None,1000,25,2134416,1298,161.285
B,8,1974409,sinestep7.wav,None,1000,25,2136416,328,163.285
B,8,1974409,vowelstep5.wav,None,1000,25,2138416,337,165.285
B,8,1974409,vowelstep3.wav,None,1000,25,2140415,338,167.285
B,8,1974409,silence.wav,None,1000,25,2142415,337,169.285
B,8,1974409,sinestep3.wav,None,1000,25,2144415,347,171.285
B,8,1974409,sinestep7_catch.wav,2,4,25,2146415,347,173.285
B,8,1974409,sinestep3.wav,None,1000,25,2148415,1337,175.285
B,8,1974409,sinestep5_catch.wav,2,75,25,2150416,345,177.285
B,8,1974409,vowelstep5.wav,None,1000,25,2152416,1258,179.285
B,8,1974409,silence.wav,None,1000,25,2154416,337,181.285
B,8,1974409,sinestep7.wav,None,1000,25,2156416,336,183.285
B,8,1974409,silence.wav,None,1000,25,2158416,346,185.285
B,8,1974409,sinestep3.wav,None,1000,25,2160416,316,187.285
B,8,1974409,silence.wav,None,1000,25,2162416,347,189.285
B,8,1974409,vowelstep7.wav,None,1000,25,2164415,354,191.285
B,8,1974409,vowelstep3.wav,None,1000,25,2166415,357,193.285
B,8,1974409,vowelstep3.wav,None,1000,25,2168416,337,195.285
B,8,1974409,sinestep7.wav,None,1000,25,2170416,336,197.285
B,8,1974409,sinestep7.wav,None,1000,25,2172416,336,199.285
B,8,1974409,sinestep3.wav,None,1000,25,2174416,345,201.285
B,8,1974409,sinestep3_catch.wav,2,36,25,2176416,346,203.285
B,8,1974409,sinestep1.wav,None,1000,25,2178416,1307,205.285
B,8,1974409,sinestep1.wav,None,1000,25,2180416,326,207.285
B,8,1974409,sinestep3.wav,None,1000,25,2182416,336,209.285
B,8,1974409,silence.wav,None,1000,25,2184416,335,211.285
B,8,1974409,silence.wav,None,1000,25,2186417,336,213.285
B,8,1974409,sinestep5_catch.wav,2,1,25,2188417,345,215.285
B,8,1974409,sinestep7.wav,None,1000,25,2190416,1337,217.285
B,8,1974409,sinestep7.wav,None,1000,25,2192416,345,219.285
B,8,1974409,vowelstep3.wav,None,1000,25,2194416,354,221.285
B,8,1974409,sinestep1_catch.wav,2,99,25,2196416,334,223.285
B,8,1974409,vowelstep5.wav,None,1000,25,2198416,1230,225.285
B,8,1974409,sinestep1.wav,None,1000,25,2200416,334,227.285
B,8,1974409,vowelstep1.wav,None,1000,25,2202416,343,229.285
B,8,1974409,vowelstep1.wav,None,1000,25,2204417,343,231.285
B,8,1974409,sinestep5.wav,None,1000,25,2206417,343,233.285
B,8,1974409,silence.wav,None,1000,25,2208417,323,235.285
B,8,1974409,silence.wav,None,1000,25,2210417,333,237.285
B,8,1974409,vowelstep1.wav,None,1000,25,2212417,334,239.285
B,8,1974409,vowelstep1.wav,None,1000,25,2214416,334,241.285
B,8,1974409,silence.wav,None,1000,25,2216416,343,243.285
B,8,1974409,vowelstep1_catch.wav,2,76,25,2218416,344,245.285
B,8,1974409,sinestep7.wav,None,1000,25,2220417,1265,247.285
B,8,1974409,sinestep1.wav,None,1000,25,2222417,333,249.285
B,8,1974409,vowelstep1.wav,None,1000,25,2224417,332,251.285
B,8,1974409,vowelstep3.wav,None,1000,25,2226417,332,253.285
B,8,1974409,sinestep3.wav,None,1000,25,2228417,333,255.285
B,8,1974409,silence.wav,None,1000,25,2230417,342,257.285
B,8,1974409,vowelstep3.wav,None,1000,25,2232417,343,259.285
B,8,1974409,silence.wav,None,1000,25,2234417,342,261.285
B,8,1974409,vowelstep3.wav,None,1000,25,2236417,348,263.285
B,8,1974409,sinestep5.wav,None,1000,25,2238417,332,265.285
B,8,1974409,vowelstep3_catch.wav,2,113,25,2240417,331,267.285
B,8,1974409,sinestep3.wav,None,1000,25,2242417,1217,269.285
B,8,1974409,sinestep1.wav,None,1000,25,2244417,342,271.285
B,8,1974409,vowelstep3.wav,None,1000,25,2246417,342,273.285
B,8,1974409,vowelstep1.wav,None,1000,25,2248417,341,275.285
B,8,1974409,vowelstep5_catch.wav,2,115,25,2250417,351,277.285
B,8,1974409,vowelstep1.wav,None,1000,25,2252417,1205,279.285
B,8,1974409,vowelstep5.wav,None,1000,25,2254417,331,281.285
B,8,1974409,sinestep7.wav,None,1000,25,2256418,330,283.285
B,8,1974409,vowelstep7.wav,None,1000,25,2258418,336,285.285
B,8,1974409,vowelstep1_catch.wav,2,9,25,2260418,341,287.285
B,8,1974409,sinestep1.wav,None,1000,25,2262418,1327,289.285
B,8,1974409,vowelstep1.wav,None,1000,25,2264417,351,291.285
B,8,1974409,sinestep5.wav,None,1000,25,2266417,350,293.285
B,8,1974409,vowelstep7.wav,None,1000,25,2268417,331,295.285
B,8,1974409,sinestep7.wav,None,1000,25,2270417,328,297.285
B,8,1974409,vowelstep7_catch.wav,2,2,25,2272418,340,299.285
B,8,1974409,sinestep3.wav,None,1000,25,2274418,1330,301.285
B,8,1974409,vowelstep3.wav,None,1000,25,2276418,340,303.285
B,8,1974409,sinestep5.wav,None,1000,25,2278418,348,305.285
B,8,1974409,vowelstep1.wav,None,1000,25,2280418,320,307.285
B,8,1974409,vowelstep7.wav,None,1000,25,2282418,329,309.285
B,8,1974409,vowelstep1.wav,None,1000,25,2284418,329,311.285
B,8,1974409,sinestep7.wav,None,1000,25,2286417,339,313.285
B,8,1974409,sinestep3.wav,None,1000,25,2288417,334,315.285
B,8,1974409,silence.wav,None,1000,25,2290418,339,317.285
B,8,1974409,vowelstep1.wav,None,1000,25,2292418,339,319.285
I,9,2349975,vowelstep7.wav,None,1000,25,2349986,0,1.285
I,9,2349975,sinestep1_catch.wav,2,115,25,2351985,332,3.285
I,9,2349975,sinestep3.wav,None,1000,25,2353985,1213,5.285
I,9,2349975,silence.wav,None,1000,25,2355985,331,7.285
I,9,2349975,vowelstep7.wav,None,1000,25,2357985,341,9.285
I,9,2349975,sinestep3_catch.wav,2,366,25,2359986,341,11.285
I,9,2349975,vowelstep3.wav,None,1000,25,2361986,982,13.285
I,9,2349975,vowelstep3.wav,None,1000,25,2363986,350,15.285
I,9,2349975,silence.wav,None,1000,25,2365986,331,17.285
I,9,2349975,vowelstep1.wav,None,1000,25,2367986,331,19.285
I,9,2349975,vowelstep5.wav,None,1000,25,2369986,329,21.285
I,9,2349975,vowelstep7.wav,None,1000,25,2371986,341,23.285
I,9,2349975,sinestep1.wav,None,1000,25,2373986,340,25.285
I,9,2349975,vowelstep1.wav,None,1000,25,2375985,339,27.285
I,9,2349975,sinestep5_catch.wav,2,36,25,2377986,350,29.285
I,9,2349975,sinestep5.wav,None,1000,25,2379986,1291,31.285
I,9,2349975,vowelstep1.wav,None,1000,25,2381986,327,33.285
I,9,2349975,sinestep7.wav,None,1000,25,2383986,330,35.285
I,9,2349975,vowelstep3.wav,None,1000,25,2385986,338,37.285
I,9,2349975,vowelstep1.wav,None,1000,25,2387986,339,39.285
I,9,2349975,vowelstep1.wav,None,1000,25,2389986,339,41.285
I,9,2349975,sinestep3.wav,None,1000,25,2391986,349,43.285
I,9,2349975,sinestep5.wav,None,1000,25,2393986,329,45.285
I,9,2349975,sinestep5.wav,None,1000,25,2395987,329,47.285
I,9,2349975,vowelstep3.wav,None,1000,25,2397987,328,49.285
I,9,2349975,silence.wav,None,1000,25,2399986,328,51.285
I,9,2349975,sinestep7_catch.wav,2,253,25,2401986,338,53.285
I,9,2349975,silence.wav,None,1000,25,2403986,1085,55.285
I,9,2349975,sinestep1.wav,None,1000,25,2405986,315,57.285
I,9,2349975,vowelstep1.wav,None,1000,25,2407986,317,59.285
I,9,2349975,sinestep1.wav,None,1000,25,2409986,328,61.285
I,9,2349975,sinestep1.wav,None,1000,25,2411986,329,63.285
I,9,2349975,vowelstep7.wav,None,1000,25,2413987,337,65.285
I,9,2349975,sinestep5.wav,None,1000,25,2415987,337,67.285
I,9,2349975,sinestep5_catch.wav,2,20,25,2417987,334,69.285
I,9,2349975,vowelstep7.wav,None,1000,25,2419987,1326,71.285
I,9,2349975,vowelstep5.wav,None,1000,25,2421987,327,73.285
I,9,2349975,sinestep3.wav,None,1000,25,2423986,327,75.285
I,9,2349975,vowelstep1.wav,None,1000,25,2425986,326,77.285
I,9,2349975,sinestep3.wav,None,1000,25,2427986,337,79.285
I,9,2349975,sinestep5.wav,None,1000,25,2429987,335,81.285
I,9,2349975,sinestep5.wav,None,1000,25,2431987,336,83.285
I,9,2349975,vowelstep5.wav,None,1000,25,2433987,346,85.285
I,9,2349975,vowelstep7.wav,None,1000,25,2435987,316,87.285
I,9,2349975,sinestep3.wav,None,1000,25,2437987,326,89.285
I,9,2349975,vowelstep3.wav,None,1000,25,2439987,326,91.285
I,9,2349975,sinestep3.wav,None,1000,25,2441987,336,93.285
I,9,2349975,vowelstep5.wav,None,1000,25,2443987,335,95.285
I,9,2349975,sinestep7.wav,None,1000,25,2445987,336,97.285
I,9,2349975,sinestep3_catch.wav,2,138,25,2447987,346,99.285
I,9,2349975,sinestep1_catch.wav,2,100,25,2449987,1176,101.285
I,9,2349975,vowelstep3.wav,None,1000,25,2451987,1219,103.285
I,9,2349975,vowelstep3.wav,None,1000,25,2453987,322,105.285
I,9,2349975,vowelstep5.wav,None,1000,25,2455987,325,107.285
I,9,2349975,sinestep5.wav,None,1000,25,2457987,335,109.285
I,9,2349975,vowelstep5.wav,None,1000,25,2459987,333,111.285
I,9,2349975,vowelstep5.wav,None,1000,25,2461987,335,113.285
I,9,2349975,vowelstep1.wav,None,1000,25,2463987,346,115.285
I,9,2349975,vowelstep1_catch.wav,2,115,25,2465988,324,117.285
I,9,2349975,sinestep7.wav,None,1000,25,2467988,1208,119.285
I,9,2349975,vowelstep3.wav,None,1000,25,2469988,324,121.285
I,9,2349975,sinestep7.wav,None,1000,25,2471987,334,123.285
I,9,2349975,sinestep7.wav,None,1000,25,2473987,334,125.285
I,9,2349975,vowelstep7.wav,None,1000,25,2475987,334,127.285
I,9,2349975,vowelstep3.wav,None,1000,25,2477987,312,129.285
I,9,2349975,sinestep5.wav,None,1000,25,2479987,325,131.285
I,9,2349975,sinestep5.wav,None,1000,25,2481987,324,133.285
I,9,2349975,vowelstep3.wav,None,1000,25,2483988,323,135.285
I,9,2349975,sinestep5.wav,None,1000,25,2485988,333,137.285
I,9,2349975,sinestep1.wav,None,1000,25,2487988,333,139.285
I,9,2349975,vowelstep7.wav,None,1000,25,2489988,334,141.285
I,9,2349975,silence.wav,None,1000,25,2491988,342,143.285
I,9,2349975,vowelstep7.wav,None,1000,25,2493988,323,145.285
I,9,2349975,silence.wav,None,1000,25,2495987,324,147.285
I,9,2349975,sinestep1.wav,None,1000,25,2497987,323,149.285
I,9,2349975,vowelstep1.wav,None,1000,25,2499988,333,151.285
I,9,2349975,vowelstep3.wav,None,1000,25,2501988,332,153.285
I,9,2349975,silence.wav,None,1000,25,2503988,333,155.285
I,9,2349975,silence.wav,None,1000,25,2505988,342,157.285
I,9,2349975,vowelstep1.wav,None,1000,25,2507988,322,159.285
I,9,2349975,sinestep1.wav,None,1000,25,2509988,323,161.285
I,9,2349975,vowelstep3_catch.wav,2,122,25,2511988,323,163.285
I,9,2349975,sinestep1.wav,None,1000,25,2513988,1209,165.285
I,9,2349975,vowelstep5.wav,None,1000,25,2515988,333,167.285
I,9,2349975,vowelstep5_catch.wav,2,40,25,2517989,332,169.285
I,9,2349975,sinestep1.wav,None,1000,25,2519988,1300,171.285
I,9,2349975,silence.wav,None,1000,25,2521988,321,173.285
I,9,2349975,vowelstep5.wav,None,1000,25,2523988,322,175.285
I,9,2349975,sinestep3.wav,None,1000,25,2525988,322,177.285
I,9,2349975,sinestep3.wav,None,1000,25,2527988,332,179.285
I,9,2349975,silence.wav,None,1000,25,2529988,332,181.285
I,9,2349975,silence.wav,None,1000,25,2531988,332,183.285
I,9,2349975,vowelstep3.wav,None,1000,25,2533988,316,185.285
I,9,2349975,vowelstep7.wav,None,1000,25,2535989,321,187.285
I,9,2349975,vowelstep7.wav,None,1000,25,2537989,320,189.285
I,9,2349975,silence.wav,None,1000,25,2539989,317,191.285
I,9,2349975,sinestep3.wav,None,1000,25,2541989,321,193.285
I,9,2349975,sinestep3.wav,None,1000,25,2543988,330,195.285
I,9,2349975,vowelstep5.wav,None,1000,25,2545988,331,197.285
I,9,2349975,vowelstep1.wav,None,1000,25,2547988,340,199.285
I,9,2349975,vowelstep1.wav,None,1000,25,2549988,341,201.285
I,9,2349975,sinestep5.wav,None,1000,25,2551988,340,203.285
I,9,2349975,silence.wav,None,1000,25,2553989,339,205.285
I,9,2349975,sinestep5.wav,None,1000,25,2555989,329,207.285
I,9,2349975,sinestep7.wav,None,1000,25,2557989,329,209.285
I,9,2349975,sinestep1.wav,None,1000,25,2559989,329,211.285
I,9,2349975,sinestep5.wav,None,1000,25,2561989,328,213.285
I,9,2349975,vowelstep5.wav,None,1000,25,2563989,339,215.285
I,9,2349975,sinestep7.wav,None,1000,25,2565989,339,217.285
I,9,2349975,sinestep5.wav,None,1000,25,2567988,349,219.285
I,9,2349975,sinestep3.wav,None,1000,25,2569989,318,221.285
I,9,2349975,silence.wav,None,1000,25,2571989,329,223.285
I,9,2349975,vowelstep7_catch.wav,2,146,25,2573989,328,225.285
I,9,2349975,sinestep7.wav,None,1000,25,2575989,1182,227.285
I,9,2349975,sinestep7.wav,None,1000,25,2577989,337,229.285
I,9,2349975,sinestep3.wav,None,1000,25,2579989,338,231.285
I,9,2349975,vowelstep3.wav,None,1000,25,2581989,339,233.285
I,9,2349975,silence.wav,None,1000,25,2583989,318,235.285
I,9,2349975,sinestep3.wav,None,1000,25,2585989,328,237.285
I,9,2349975,sinestep5.wav,None,1000,25,2587990,327,239.285
I,9,2349975,silence.wav,None,1000,25,2589990,325,241.285
I,9,2349975,vowelstep3.wav,None,1000,25,2591990,338,243.285
I,9,2349975,sinestep1.wav,None,1000,25,2593989,337,245.285
I,9,2349975,sinestep1.wav,None,1000,25,2595989,347,247.285
I,9,2349975,sinestep7.wav,None,1000,25,2597989,348,249.285
I,9,2349975,vowelstep7.wav,None,1000,25,2599989,327,251.285
I,9,2349975,vowelstep5.wav,None,1000,25,2601989,327,253.285
I,9,2349975,silence.wav,None,1000,25,2603989,327,255.285
I,9,2349975,sinestep3.wav,None,1000,25,2605990,337,257.285
I,9,2349975,vowelstep1.wav,None,1000,25,2607990,337,259.285
I,9,2349975,vowelstep1.wav,None,1000,25,2609990,335,261.285
I,9,2349975,silence.wav,None,1000,25,2611990,346,263.285
I,9,2349975,vowelstep3.wav,None,1000,25,2613990,327,265.285
I,9,2349975,silence.wav,None,1000,25,2615990,327,267.285
I,9,2349975,silence.wav,None,1000,25,2617989,326,269.285
I,9,2349975,sinestep7.wav,None,1000,25,2619989,336,271.285
I,9,2349975,sinestep7.wav,None,1000,25,2621989,337,273.285
I,9,2349975,vowelstep5.wav,None,1000,25,2623990,335,275.285
I,9,2349975,silence.wav,None,1000,25,2625990,345,277.285
I,9,2349975,silence.wav,None,1000,25,2627990,324,279.285
I,9,2349975,sinestep1.wav,None,1000,25,2629990,325,281.285
I,9,2349975,silence.wav,None,1000,25,2631990,325,283.285
I,9,2349975,vowelstep7.wav,None,1000,25,2633990,335,285.285
I,9,2349975,vowelstep5_catch.wav,2,111,25,2635990,333,287.285
I,9,2349975,sinestep7.wav,None,1000,25,2637990,1223,289.285
I,9,2349975,sinestep1.wav,None,1000,25,2639991,312,291.285
I,9,2349975,vowelstep3_catch.wav,2,67,25,2641990,311,293.285
I,9,2349975,sinestep1.wav,None,1000,25,2643990,1253,295.285
I,9,2349975,vowelstep7.wav,None,1000,25,2645990,324,297.285
I,9,2349975,sinestep3.wav,None,1000,25,2647990,333,299.285
I,9,2349975,vowelstep5.wav,None,1000,25,2649990,334,301.285
I,9,2349975,vowelstep1_catch.wav,2,63,25,2651990,334,303.285
I,9,2349975,vowelstep7.wav,None,1000,25,2653990,1271,305.285
I,9,2349975,vowelstep5.wav,None,1000,25,2655990,323,307.285
I,9,2349975,sinestep1_catch.wav,2,86,25,2657991,323,309.285
I,9,2349975,silence.wav,None,1000,25,2659991,1235,311.285
I,9,2349975,sinestep7.wav,None,1000,25,2661991,333,313.285
I,9,2349975,silence.wav,None,1000,25,2663991,333,315.285
I,9,2349975,vowelstep1.wav,None,1000,25,2665990,333,317.285
I,9,2349975,sinestep7.wav,None,1000,25,2667990,343,319.285