block,count_main_sequence,first_trial_timestamp,fname,response_catch_response,response_time_catch_response,subject_nr,time_stimulus,time_to_pad,timing
A,0,61725,sinestep5_catch.wav,2,520,27,61744,0,1.285
A,0,61725,vowelstep1.wav,None,1000,27,63744,801,3.285
A,0,61725,vowelstep3.wav,None,1000,27,65744,339,5.285
A,0,61725,sinestep1.wav,None,1000,27,67744,337,7.285
A,0,61725,sinestep5_catch.wav,2,126,27,69744,349,9.285
A,0,61725,sinestep7.wav,None,1000,27,71744,1188,11.285
A,0,61725,sinestep3.wav,None,1000,27,73744,326,13.285
A,0,61725,silence.wav,None,1000,27,75744,325,15.285
A,0,61725,vowelstep7.wav,None,1000,27,77744,339,17.285
A,0,61725,sinestep7.wav,None,1000,27,79728,338,19.285
A,0,61725,vowelstep5_catch.wav,2,150,27,81744,357,21.285
A,0,61725,sinestep7.wav,None,1000,27,83744,1187,23.285
A,0,61725,sinestep3.wav,None,1000,27,85744,328,25.285
A,0,61725,silence.wav,None,1000,27,87744,327,27.285
A,0,61725,sinestep3.wav,None,1000,27,89744,324,29.285
A,0,61725,sinestep5_catch.wav,2,45,27,91744,329,31.285
A,0,61725,sinestep1.wav,None,1000,27,93744,1290,33.285
A,0,61725,sinestep1.wav,None,1000,27,95728,339,35.285
A,0,61725,sinestep5.wav,None,1000,27,97728,236,37.285
A,0,61725,vowelstep3.wav,None,1000,27,99728,345,39.285
A,0,61725,vowelstep5.wav,None,1000,27,101745,344,41.285
A,0,61725,vowelstep3.wav,None,1000,27,103745,328,43.285
A,0,61725,vowelstep1.wav,None,1000,27,105744,327,45.285
A,0,61725,vowelstep3.wav,None,1000,27,107744,337,47.285
A,0,61725,sinestep3.wav,None,1000,27,109728,338,49.285
A,0,61725,sinestep7.wav,None,1000,27,111744,337,51.285
A,0,61725,sinestep5.wav,None,1000,27,113728,347,53.285
A,0,61725,vowelstep7_catch.wav,2,146,27,115728,346,55.285
A,0,61725,silence.wav,None,1000,27,117728,1199,57.285
A,0,61725,vowelstep3.wav,None,1000,27,119745,356,59.285
A,0,61725,vowelstep1.wav,None,1000,27,121745,336,61.285
A,0,61725,silence.wav,None,1000,27,123745,336,63.285
A,0,61725,sinestep3.wav,None,1000,27,125728,338,65.285
A,0,61725,sinestep7.wav,None,1000,27,127728,348,67.285
A,0,61725,sinestep5.wav,None,1000,27,129744,347,69.285
A,0,61725,sinestep5.wav,None,1000,27,131729,327,71.285
A,0,61725,sinestep7.wav,None,1000,27,133729,355,73.285
A,0,61725,sinestep1.wav,None,1000,27,135729,356,75.285
A,0,61725,sinestep5.wav,None,1000,27,137745,356,77.285
A,0,61725,vowelstep1.wav,None,1000,27,139745,335,79.285
A,0,61725,sinestep1.wav,None,1000,27,141728,345,81.285
A,0,61725,vowelstep5.wav,None,1000,27,143728,345,83.285
A,0,61725,sinestep1.wav,None,1000,27,145728,345,85.285
A,0,61725,silence.wav,None,1000,27,147728,355,87.285
A,0,61725,vowelstep1.wav,None,1000,27,149729,355,89.285
A,0,61725,sinestep3.wav,None,1000,27,151729,355,91.285
A,0,61725,vowelstep5.wav,None,1000,27,153729,364,93.285
A,0,61725,vowelstep5.wav,None,1000,27,155745,335,95.285
A,0,61725,vowelstep5.wav,None,1000,27,157729,325,97.285
A,0,61725,vowelstep7.wav,None,1000,27,159729,344,99.285
A,0,61725,vowelstep3.wav,None,1000,27,161728,346,101.285
A,0,61725,sinestep1.wav,None,1000,27,163728,354,103.285
A,0,61725,sinestep1.wav,None,1000,27,165729,356,105.285
A,0,61725,vowelstep7.wav,None,1000,27,167729,354,107.285
A,0,61725,vowelstep1.wav,None,1000,27,169729,364,109.285
A,0,61725,vowelstep7.wav,None,1000,27,171729,343,111.285
A,0,61725,silence.wav,None,1000,27,173729,342,113.285
A,0,61725,sinestep1.wav,None,1000,27,175729,343,115.285
A,0,61725,vowelstep1.wav,None,1000,27,177729,352,117.285
A,0,61725,silence.wav,None,1000,27,179729,352,119.285
A,0,61725,vowelstep1.wav,None,1000,27,181729,362,121.285
A,0,61725,vowelstep3.wav,None,1000,27,183730,332,123.285
A,0,61725,vowelstep1.wav,None,1000,27,185729,341,125.285
A,0,61725,sinestep7.wav,None,1000,27,187729,341,127.285
A,0,61725,silence.wav,None,1000,27,189729,352,129.285
A,0,61725,vowelstep1.wav,None,1000,27,191729,349,131.285
A,0,61725,silence.wav,None,1000,27,193729,347,133.285
A,0,61725,sinestep7.wav,None,1000,27,195729,361,135.285
A,0,61725,vowelstep5.wav,None,1000,27,197729,342,137.285
A,0,61725,sinestep7.wav,None,1000,27,199729,340,139.285
A,0,61725,sinestep3.wav,None,1000,27,201730,341,141.285
A,0,61725,vowelstep5.wav,None,1000,27,203730,347,143.285
A,0,61725,silence.wav,None,1000,27,205730,350,145.285
A,0,61725,sinestep3.wav,None,1000,27,207730,350,147.285
A,0,61725,sinestep5.wav,None,1000,27,209729,349,149.285
A,0,61725,sinestep3.wav,None,1000,27,211729,360,151.285
A,0,61725,vowelstep3.wav,None,1000,27,213729,339,153.285
A,0,61725,sinestep3.wav,None,1000,27,215729,339,155.285
A,0,61725,vowelstep7_catch.wav,2,109,27,217729,340,157.285
A,0,61725,vowelstep7.wav,None,1000,27,219730,1239,159.285
A,0,61725,vowelstep5.wav,None,1000,27,221730,349,161.285
A,0,61725,sinestep5.wav,None,1000,27,223730,349,163.285
A,0,61725,silence.wav,None,1000,27,225730,327,165.285
A,0,61725,sinestep5.wav,None,1000,27,227730,339,167.285
A,0,61725,vowelstep5_catch.wav,2,176,27,229730,338,169.285
A,0,61725,silence.wav,None,1000,27,231730,1171,171.285
A,0,61725,sinestep7.wav,None,1000,27,233729,348,173.285
A,0,61725,sinestep5.wav,None,1000,27,235730,349,175.285
A,0,61725,sinestep7.wav,None,1000,27,237730,346,177.285
A,0,61725,vowelstep3.wav,None,1000,27,239730,327,179.285
A,0,61725,sinestep5.wav,None,1000,27,241730,336,181.285
A,0,61725,vowelstep1.wav,None,1000,27,243730,337,183.285
A,0,61725,vowelstep5.wav,None,1000,27,245730,335,185.285
A,0,61725,sinestep5.wav,None,1000,27,247730,346,187.285
A,0,61725,vowelstep1.wav,None,1000,27,249730,345,189.285
A,0,61725,silence.wav,None,1000,27,251730,345,191.285
A,0,61725,sinestep1.wav,None,1000,27,253731,327,193.285
A,0,61725,vowelstep5.wav,None,1000,27,255731,335,195.285
A,0,61725,sinestep3.wav,None,1000,27,257730,334,197.285
A,0,61725,silence.wav,None,1000,27,259730,330,199.285
A,0,61725,vowelstep3.wav,None,1000,27,261730,344,201.285
A,0,61725,vowelstep3_catch.wav,2,368,27,263730,344,203.285
A,0,61725,vowelstep5.wav,None,1000,27,265730,977,205.285
A,0,61725,vowelstep1_catch.wav,2,63,27,267730,334,207.285
A,0,61725,silence.wav,None,1000,27,269730,1271,209.285
A,0,61725,sinestep3.wav,None,1000,27,271731,335,211.285
A,0,61725,vowelstep5.wav,None,1000,27,273731,334,213.285
A,0,61725,silence.wav,None,1000,27,275731,332,215.285
A,0,61725,sinestep5.wav,None,1000,27,277731,342,217.285
A,0,61725,vowelstep7.wav,None,1000,27,279731,342,219.285
A,0,61725,silence.wav,None,1000,27,281731,352,221.285
A,0,61725,vowelstep3.wav,None,1000,27,283730,332,223.285
A,0,61725,sinestep7.wav,None,1000,27,285730,352,225.285
A,0,61725,silence.wav,None,1000,27,287730,361,227.285
A,0,61725,vowelstep3.wav,None,1000,27,289731,341,229.285
A,0,61725,vowelstep5.wav,None,1000,27,291731,340,231.285
A,0,61725,vowelstep7.wav,None,1000,27,293731,341,233.285
A,0,61725,vowelstep3.wav,None,1000,27,295731,350,235.285
A,0,61725,vowelstep5.wav,None,1000,27,297731,351,237.285
A,0,61725,sinestep1_catch.wav,2,87,27,299731,350,239.285
A,0,61725,sinestep3.wav,None,1000,27,301731,1272,241.285
A,0,61725,sinestep1.wav,None,1000,27,303731,365,243.285
A,0,61725,sinestep3_catch.wav,2,112,27,305732,346,245.285
A,0,61725,sinestep7.wav,None,1000,27,307731,1231,247.285
A,0,61725,vowelstep1.wav,None,1000,27,309731,345,249.285
A,0,61725,sinestep3.wav,None,1000,27,311731,352,251.285
A,0,61725,vowelstep7.wav,None,1000,27,313731,354,253.285
A,0,61725,silence.wav,None,1000,27,315731,365,255.285
A,0,61725,sinestep1.wav,None,1000,27,317731,335,257.285
A,0,61725,silence.wav,None,1000,27,319731,344,259.285
A,0,61725,vowelstep5.wav,None,1000,27,321731,344,261.285
A,0,61725,sinestep5_catch.wav,2,101,27,323732,354,263.285
A,0,61725,vowelstep7.wav,None,1000,27,325732,1252,265.285
A,0,61725,sinestep3.wav,None,1000,27,327732,353,267.285
A,0,61725,vowelstep1.wav,None,1000,27,329732,353,269.285
A,0,61725,vowelstep3.wav,None,1000,27,331731,344,271.285
A,0,61725,sinestep7_catch.wav,2,13,27,333731,343,273.285
A,0,61725,silence.wav,None,1000,27,335731,1329,275.285
A,0,61725,vowelstep7.wav,None,1000,27,337731,343,277.285
A,0,61725,sinestep7.wav,None,1000,27,339731,353,279.285
A,0,61725,sinestep1.wav,None,1000,27,341732,351,281.285
A,0,61725,vowelstep7.wav,None,1000,27,343732,353,283.285
A,0,61725,sinestep5.wav,None,1000,27,345732,333,285.285
A,0,61725,sinestep5.wav,None,1000,27,347732,343,287.285
A,0,61725,sinestep7_catch.wav,2,98,27,349732,342,289.285
A,0,61725,sinestep5.wav,None,1000,27,351732,1244,291.285
A,0,61725,silence.wav,None,1000,27,353732,351,293.285
A,0,61725,vowelstep3.wav,None,1000,27,355731,352,295.285
A,0,61725,silence.wav,None,1000,27,357731,352,297.285
A,0,61725,vowelstep1.wav,None,1000,27,359732,361,299.285
A,0,61725,sinestep1.wav,None,1000,27,361732,342,301.285
A,0,61725,sinestep7.wav,None,1000,27,363732,341,303.285
A,0,61725,vowelstep7.wav,None,1000,27,365732,342,305.285
A,0,61725,sinestep1_catch.wav,2,30,27,367732,352,307.285
A,0,61725,silence.wav,None,1000,27,369732,1321,309.285
A,0,61725,silence.wav,None,1000,27,371732,353,311.285
A,0,61725,vowelstep7.wav,None,1000,27,373732,361,313.285
A,0,61725,sinestep1.wav,None,1000,27,375733,341,315.285
A,0,61725,vowelstep7.wav,None,1000,27,377733,340,317.285
A,0,61725,vowelstep7.wav,None,1000,27,379732,341,319.285
I,1,442834,vowelstep7.wav,None,1000,27,442850,0,1.285
I,1,442834,sinestep1_catch.wav,2,61,27,444849,324,3.285
I,1,442834,sinestep3.wav,None,1000,27,446850,1264,5.285
I,1,442834,silence.wav,None,1000,27,448850,325,7.285
I,1,442834,vowelstep7.wav,None,1000,27,450850,335,9.285
I,1,442834,sinestep3_catch.wav,2,144,27,452850,334,11.285
I,1,442834,vowelstep3.wav,None,1000,27,454850,1191,13.285
I,1,442834,vowelstep3.wav,None,1000,27,456850,345,15.285
I,1,442834,silence.wav,None,1000,27,458850,345,17.285
I,1,442834,vowelstep1.wav,None,1000,27,460850,325,19.285
I,1,442834,vowelstep5.wav,None,1000,27,462851,355,21.285
I,1,442834,vowelstep7.wav,None,1000,27,464851,334,23.285
I,1,442834,sinestep1.wav,None,1000,27,466851,334,25.285
I,1,442834,vowelstep1.wav,None,1000,27,468850,333,27.285
I,1,442834,sinestep5_catch.wav,2,113,27,470850,340,29.285
I,1,442834,sinestep5.wav,None,1000,27,472850,1229,31.285
I,1,442834,vowelstep1.wav,None,1000,27,474850,343,33.285
I,1,442834,sinestep7.wav,None,1000,27,476850,354,35.285
I,1,442834,vowelstep3.wav,None,1000,27,478850,325,37.285
I,1,442834,vowelstep1.wav,None,1000,27,480851,333,39.285
I,1,442834,vowelstep1.wav,None,1000,27,482851,333,41.285
I,1,442834,sinestep3.wav,None,1000,27,484851,342,43.285
I,1,442834,sinestep5.wav,None,1000,27,486851,342,45.285
I,1,442834,sinestep5.wav,None,1000,27,488851,343,47.285
I,1,442834,vowelstep3.wav,None,1000,27,490851,353,49.285
I,1,442834,silence.wav,None,1000,27,492850,334,51.285
I,1,442834,sinestep7_catch.wav,2,173,27,494850,333,53.285
I,1,442834,silence.wav,None,1000,27,496850,1159,55.285
I,1,442834,sinestep1.wav,None,1000,27,498851,343,57.285
I,1,442834,vowelstep1.wav,None,1000,27,500851,342,59.285
I,1,442834,sinestep1.wav,None,1000,27,502851,342,61.285
I,1,442834,sinestep1.wav,None,1000,27,504851,341,63.285
I,1,442834,vowelstep7.wav,None,1000,27,506851,328,65.285
I,1,442834,sinestep5.wav,None,1000,27,508851,333,67.285
I,1,442834,sinestep5_catch.wav,2,97,27,510851,332,69.285
I,1,442834,vowelstep7.wav,None,1000,27,512851,1234,71.285
I,1,442834,vowelstep5.wav,None,1000,27,514851,342,73.285
I,1,442834,sinestep3.wav,None,1000,27,516851,339,75.285
I,1,442834,vowelstep1.wav,None,1000,27,518851,341,77.285
I,1,442834,sinestep3.wav,None,1000,27,520851,316,79.285
I,1,442834,sinestep5.wav,None,1000,27,522851,329,81.285
I,1,442834,sinestep5.wav,None,1000,27,524851,332,83.285
I,1,442834,vowelstep5.wav,None,1000,27,526851,339,85.285
I,1,442834,vowelstep7.wav,None,1000,27,528851,340,87.285
I,1,442834,sinestep3.wav,None,1000,27,530851,340,89.285
I,1,442834,vowelstep3.wav,None,1000,27,532852,337,91.285
I,1,442834,sinestep3.wav,None,1000,27,534852,328,93.285
I,1,442834,vowelstep5.wav,None,1000,27,536852,326,95.285
I,1,442834,sinestep7.wav,None,1000,27,538852,328,97.285
I,1,442834,sinestep3_catch.wav,2,96,27,540851,328,99.285
I,1,442834,sinestep1_catch.wav,2,127,27,542851,1243,101.285
I,1,442834,vowelstep3.wav,None,1000,27,544851,1211,103.285
I,1,442834,vowelstep3.wav,None,1000,27,546851,339,105.285
I,1,442834,vowelstep5.wav,None,1000,27,548851,349,107.285
I,1,442834,sinestep5.wav,None,1000,27,550852,329,109.285
I,1,442834,vowelstep5.wav,None,1000,27,552852,328,111.285
I,1,442834,vowelstep5.wav,None,1000,27,554852,326,113.285
I,1,442834,vowelstep1.wav,None,1000,27,556852,338,115.285
I,1,442834,vowelstep1_catch.wav,2,177,27,558852,338,117.285
I,1,442834,sinestep7.wav,None,1000,27,560852,1160,119.285
I,1,442834,vowelstep3.wav,None,1000,27,562852,318,121.285
I,1,442834,sinestep7.wav,None,1000,27,564851,324,123.285
I,1,442834,sinestep7.wav,None,1000,27,566851,327,125.285
I,1,442834,vowelstep7.wav,None,1000,27,568852,326,127.285
I,1,442834,vowelstep3.wav,None,1000,27,570852,337,129.285
I,1,442834,sinestep5.wav,None,1000,27,572852,336,131.285
I,1,442834,sinestep5.wav,None,1000,27,574852,337,133.285
I,1,442834,vowelstep3.wav,None,1000,27,576852,347,135.285
I,1,442834,sinestep5.wav,None,1000,27,578852,327,137.285
I,1,442834,sinestep1.wav,None,1000,27,580852,327,139.285
I,1,442834,vowelstep7.wav,None,1000,27,582852,323,141.285
I,1,442834,silence.wav,None,1000,27,584852,329,143.285
I,1,442834,vowelstep7.wav,None,1000,27,586853,334,145.285
I,1,442834,silence.wav,None,1000,27,588853,336,147.285
I,1,442834,sinestep1.wav,None,1000,27,590852,316,149.285
I,1,442834,vowelstep1.wav,None,1000,27,592852,326,151.285
I,1,442834,vowelstep3.wav,None,1000,27,594852,326,153.285
I,1,442834,silence.wav,None,1000,27,596852,326,155.285
I,1,442834,silence.wav,None,1000,27,598852,336,157.285
I,1,442834,vowelstep1.wav,None,1000,27,600852,336,159.285
I,1,442834,sinestep1.wav,None,1000,27,602853,336,161.285
I,1,442834,vowelstep3_catch.wav,2,84,27,604853,335,163.285
I,1,442834,sinestep1.wav,None,1000,27,606853,1241,165.285
I,1,442834,vowelstep5.wav,None,1000,27,608853,325,167.285
I,1,442834,vowelstep5_catch.wav,2,243,27,610853,324,169.285
I,1,442834,sinestep1.wav,None,1000,27,612853,1078,171.285
I,1,442834,silence.wav,None,1000,27,614852,336,173.285
I,1,442834,vowelstep5.wav,None,1000,27,616852,330,175.285
I,1,442834,sinestep3.wav,None,1000,27,618852,345,177.285
I,1,442834,sinestep3.wav,None,1000,27,620853,315,179.285
I,1,442834,silence.wav,None,1000,27,622853,324,181.285
I,1,442834,silence.wav,None,1000,27,624853,324,183.285
I,1,442834,vowelstep3.wav,None,1000,27,626853,333,185.285
I,1,442834,vowelstep7.wav,None,1000,27,628853,333,187.285
I,1,442834,vowelstep7.wav,None,1000,27,630853,330,189.285
I,1,442834,silence.wav,None,1000,27,632853,334,191.285
I,1,442834,sinestep3.wav,None,1000,27,634853,323,193.285
I,1,442834,sinestep3.wav,None,1000,27,636853,323,195.285
I,1,442834,vowelstep5.wav,None,1000,27,638853,324,197.285
I,1,442834,vowelstep1.wav,None,1000,27,640853,323,199.285
I,1,442834,vowelstep1.wav,None,1000,27,642853,333,201.285
I,1,442834,sinestep5.wav,None,1000,27,644853,333,203.285
I,1,442834,silence.wav,None,1000,27,646853,329,205.285
I,1,442834,sinestep5.wav,None,1000,27,648853,344,207.285
I,1,442834,sinestep7.wav,None,1000,27,650853,321,209.285
I,1,442834,sinestep1.wav,None,1000,27,652853,319,211.285
I,1,442834,sinestep5.wav,None,1000,27,654853,323,213.285
I,1,442834,vowelstep5.wav,None,1000,27,656837,330,215.285
I,1,442834,sinestep7.wav,None,1000,27,658854,351,217.285
I,1,442834,sinestep5.wav,None,1000,27,660854,326,219.285
I,1,442834,sinestep3.wav,None,1000,27,662853,342,221.285
I,1,442834,silence.wav,None,1000,27,664853,321,223.285
I,1,442834,vowelstep7_catch.wav,2,247,27,666837,321,225.285
I,1,442834,sinestep7.wav,None,1000,27,668853,1097,227.285
I,1,442834,sinestep7.wav,None,1000,27,670853,328,229.285
I,1,442834,sinestep3.wav,None,1000,27,672837,326,231.285
I,1,442834,vowelstep3.wav,None,1000,27,674837,327,233.285
I,1,442834,silence.wav,None,1000,27,676854,337,235.285
I,1,442834,sinestep3.wav,None,1000,27,678854,313,237.285
I,1,442834,sinestep5.wav,None,1000,27,680854,317,239.285
I,1,442834,silence.wav,None,1000,27,682837,318,241.285
I,1,442834,vowelstep3.wav,None,1000,27,684837,339,243.285
I,1,442834,sinestep1.wav,None,1000,27,686837,348,245.285
I,1,442834,sinestep1.wav,None,1000,27,688853,337,247.285
I,1,442834,sinestep7.wav,None,1000,27,690838,338,249.285
I,1,442834,vowelstep7.wav,None,1000,27,692838,334,251.285
I,1,442834,vowelstep5.wav,None,1000,27,694854,337,253.285
I,1,442834,silence.wav,None,1000,27,696854,313,255.285
I,1,442834,sinestep3.wav,None,1000,27,698837,326,257.285
I,1,442834,vowelstep1.wav,None,1000,27,700837,345,259.285
I,1,442834,vowelstep1.wav,None,1000,27,702837,350,261.285
I,1,442834,silence.wav,None,1000,27,704837,338,263.285
I,1,442834,vowelstep3.wav,None,1000,27,706854,334,265.285
I,1,442834,silence.wav,None,1000,27,708838,316,267.285
I,1,442834,silence.wav,None,1000,27,710838,345,269.285
I,1,442834,sinestep7.wav,None,1000,27,712854,343,271.285
I,1,442834,sinestep7.wav,None,1000,27,714838,327,273.285
I,1,442834,vowelstep5.wav,None,1000,27,716838,354,275.285
I,1,442834,silence.wav,None,1000,27,718837,336,277.285
I,1,442834,silence.wav,None,1000,27,720837,337,279.285
I,1,442834,sinestep1.wav,None,1000,27,722837,336,281.285
I,1,442834,silence.wav,None,1000,27,724854,346,283.285
I,1,442834,vowelstep7.wav,None,1000,27,726838,315,285.285
I,1,442834,vowelstep5_catch.wav,2,367,27,728838,345,287.285
I,1,442834,sinestep7.wav,None,1000,27,730838,985,289.285
I,1,442834,sinestep1.wav,None,1000,27,732838,322,291.285
I,1,442834,vowelstep3_catch.wav,2,139,27,734838,336,293.285
I,1,442834,sinestep1.wav,None,1000,27,736838,1194,295.285
I,1,442834,vowelstep7.wav,None,1000,27,738838,336,297.285
I,1,442834,sinestep3.wav,None,1000,27,740838,343,299.285
I,1,442834,vowelstep5.wav,None,1000,27,742838,346,301.285
I,1,442834,vowelstep1_catch.wav,2,166,27,744838,354,303.285
I,1,442834,vowelstep7.wav,None,1000,27,746838,1154,305.285
I,1,442834,vowelstep5.wav,None,1000,27,748838,335,307.285
I,1,442834,sinestep1_catch.wav,2,65,27,750838,333,309.285
I,1,442834,silence.wav,None,1000,27,752838,1268,311.285
I,1,442834,sinestep7.wav,None,1000,27,754838,345,313.285
I,1,442834,silence.wav,None,1000,27,756838,340,315.285
I,1,442834,vowelstep1.wav,None,1000,27,758838,346,317.285
I,1,442834,sinestep7.wav,None,1000,27,760839,354,319.285
G,2,818436,vowelstep3.wav,None,1000,27,818439,0,1.285
G,2,818436,vowelstep3.wav,None,1000,27,820439,346,3.285
G,2,818436,vowelstep7.wav,None,1000,27,822439,349,5.285
G,2,818436,vowelstep3.wav,None,1000,27,824439,349,7.285
G,2,818436,sinestep5.wav,None,1000,27,826456,331,9.285
G,2,818436,sinestep1_catch.wav,2,101,27,828456,319,11.285
G,2,818436,silence.wav,None,1000,27,830440,1218,13.285
G,2,818436,silence.wav,None,1000,27,832440,339,15.285
G,2,818436,vowelstep7.wav,None,1000,27,834440,344,17.285
G,2,818436,vowelstep1.wav,None,1000,27,836440,348,19.285
G,2,818436,silence.wav,None,1000,27,838440,344,21.285
G,2,818436,sinestep1.wav,None,1000,27,840439,329,23.285
G,2,818436,vowelstep7.wav,None,1000,27,842439,337,25.285
G,2,818436,sinestep5.wav,None,1000,27,844456,335,27.285
G,2,818436,sinestep5.wav,None,1000,27,846456,319,29.285
G,2,818436,sinestep3.wav,None,1000,27,848440,313,31.285
G,2,818436,vowelstep3.wav,None,1000,27,850440,347,33.285
G,2,818436,silence.wav,None,1000,27,852440,347,35.285
G,2,818436,vowelstep1.wav,None,1000,27,854440,358,37.285
G,2,818436,sinestep7.wav,None,1000,27,856440,337,39.285
G,2,818436,vowelstep5.wav,None,1000,27,858440,338,41.285
G,2,818436,vowelstep3.wav,None,1000,27,860440,335,43.285
G,2,818436,sinestep1.wav,None,1000,27,862456,347,45.285
G,2,818436,sinestep7.wav,None,1000,27,864456,327,47.285
G,2,818436,sinestep1.wav,None,1000,27,866440,328,49.285
G,2,818436,sinestep5.wav,None,1000,27,868440,360,51.285
G,2,818436,vowelstep1.wav,None,1000,27,870440,330,53.285
G,2,818436,silence.wav,None,1000,27,872440,340,55.285
G,2,818436,sinestep5.wav,None,1000,27,874440,340,57.285
G,2,818436,vowelstep1.wav,None,1000,27,876440,349,59.285
G,2,818436,vowelstep3.wav,None,1000,27,878440,350,61.285
G,2,818436,sinestep3.wav,None,1000,27,880440,349,63.285
G,2,818436,sinestep1.wav,None,1000,27,882441,349,65.285
G,2,818436,vowelstep5.wav,None,1000,27,884441,335,67.285
G,2,818436,vowelstep3.wav,None,1000,27,886441,337,69.285
G,2,818436,vowelstep5.wav,None,1000,27,888440,336,71.285
G,2,818436,vowelstep7.wav,None,1000,27,890440,337,73.285
G,2,818436,vowelstep5.wav,None,1000,27,892440,344,75.285
G,2,818436,vowelstep5.wav,None,1000,27,894440,347,77.285
G,2,818436,sinestep3.wav,None,1000,27,896440,355,79.285
G,2,818436,sinestep3_catch.wav,2,191,27,898440,327,81.285
G,2,818436,sinestep5_catch.wav,2,20,27,900441,1147,83.285
G,2,818436,sinestep7.wav,None,1000,27,902441,1316,85.285
G,2,818436,sinestep7_catch.wav,None,1000,27,904441,347,87.285
G,2,818436,sinestep7.wav,None,1000,27,906441,347,89.285
G,2,818436,vowelstep1.wav,None,1000,27,908441,347,91.285
G,2,818436,vowelstep7.wav,None,1000,27,910441,344,93.285
G,2,818436,vowelstep3.wav,None,1000,27,912440,337,95.285
G,2,818436,sinestep3.wav,None,1000,27,914440,336,97.285
G,2,818436,sinestep1.wav,None,1000,27,916440,334,99.285
G,2,818436,sinestep1.wav,None,1000,27,918441,337,101.285
G,2,818436,sinestep5.wav,None,1000,27,920441,345,103.285
G,2,818436,vowelstep7.wav,None,1000,27,922441,343,105.285
G,2,818436,silence.wav,None,1000,27,924441,355,107.285
G,2,818436,sinestep3.wav,None,1000,27,926441,355,109.285
G,2,818436,vowelstep1.wav,None,1000,27,928441,336,111.285
G,2,818436,sinestep3.wav,None,1000,27,930441,336,113.285
G,2,818436,sinestep3.wav,None,1000,27,932441,336,115.285
G,2,818436,sinestep7.wav,None,1000,27,934441,343,117.285
G,2,818436,silence.wav,None,1000,27,936441,346,119.285
G,2,818436,vowelstep5.wav,None,1000,27,938441,355,121.285
G,2,818436,sinestep1_catch.wav,2,15,27,940441,325,123.285
G,2,818436,silence.wav,None,1000,27,942441,1319,125.285
G,2,818436,sinestep5.wav,None,1000,27,944441,336,127.285
G,2,818436,sinestep7.wav,None,1000,27,946441,335,129.285
G,2,818436,sinestep3.wav,None,1000,27,948441,341,131.285
G,2,818436,sinestep3.wav,None,1000,27,950441,345,133.285
G,2,818436,vowelstep5.wav,None,1000,27,952442,343,135.285
G,2,818436,sinestep3.wav,None,1000,27,954442,353,137.285
G,2,818436,sinestep3_catch.wav,2,64,27,956442,331,139.285
G,2,818436,vowelstep1.wav,None,1000,27,958442,1270,141.285
G,2,818436,vowelstep1.wav,None,1000,27,960442,329,143.285
G,2,818436,sinestep5.wav,None,1000,27,962441,344,145.285
G,2,818436,silence.wav,None,1000,27,964441,344,147.285
G,2,818436,sinestep3.wav,None,1000,27,966441,343,149.285
G,2,818436,silence.wav,None,1000,27,968441,323,151.285
G,2,818436,vowelstep3.wav,None,1000,27,970442,334,153.285
G,2,818436,sinestep5.wav,None,1000,27,972442,329,155.285
G,2,818436,vowelstep7.wav,None,1000,27,974442,331,157.285
G,2,818436,silence.wav,None,1000,27,976442,344,159.285
G,2,818436,sinestep5_catch.wav,2,70,27,978442,341,161.285
G,2,818436,vowelstep5.wav,None,1000,27,980442,1266,163.285
G,2,818436,silence.wav,None,1000,27,982442,350,165.285
G,2,818436,vowelstep7.wav,None,1000,27,984442,331,167.285
G,2,818436,vowelstep1.wav,None,1000,27,986441,333,169.285
G,2,818436,vowelstep1.wav,None,1000,27,988442,329,171.285
G,2,818436,vowelstep1.wav,None,1000,27,990442,342,173.285
G,2,818436,sinestep5.wav,None,1000,27,992442,338,175.285
G,2,818436,vowelstep3.wav,None,1000,27,994442,342,177.285
G,2,818436,sinestep1.wav,None,1000,27,996442,353,179.285
G,2,818436,vowelstep1.wav,None,1000,27,998442,333,181.285
G,2,818436,sinestep1.wav,None,1000,27,1000442,330,183.285
G,2,818436,sinestep7.wav,None,1000,27,1002442,334,185.285
G,2,818436,sinestep7.wav,None,1000,27,1004442,339,187.285
G,2,818436,sinestep3.wav,None,1000,27,1006443,343,189.285
G,2,818436,sinestep5.wav,None,1000,27,1008443,342,191.285
G,2,818436,silence.wav,None,1000,27,1010442,323,193.285
G,2,818436,sinestep7_catch.wav,2,14,27,1012442,351,195.285
G,2,818436,vowelstep7_catch.wav,2,43,27,1014442,1319,197.285
G,2,818436,sinestep7.wav,None,1000,27,1016442,1307,199.285
G,2,818436,silence.wav,None,1000,27,1018442,342,201.285
G,2,818436,sinestep7.wav,None,1000,27,1020442,338,203.285
G,2,818436,sinestep3.wav,None,1000,27,1022443,340,205.285
G,2,818436,vowelstep7.wav,None,1000,27,1024443,341,207.285
G,2,818436,sinestep1.wav,None,1000,27,1026443,349,209.285
G,2,818436,silence.wav,None,1000,27,1028443,325,211.285
G,2,818436,silence.wav,None,1000,27,1030443,358,213.285
G,2,818436,vowelstep7.wav,None,1000,27,1032443,335,215.285
G,2,818436,vowelstep5.wav,None,1000,27,1034442,339,217.285
G,2,818436,sinestep7.wav,None,1000,27,1036442,338,219.285
G,2,818436,vowelstep5.wav,None,1000,27,1038442,337,221.285
G,2,818436,vowelstep5_catch.wav,2,195,27,1040443,350,223.285
G,2,818436,vowelstep7.wav,None,1000,27,1042443,1131,225.285
G,2,818436,silence.wav,None,1000,27,1044443,350,227.285
G,2,818436,silence.wav,None,1000,27,1046443,339,229.285
G,2,818436,sinestep1.wav,None,1000,27,1048443,338,231.285
G,2,818436,silence.wav,None,1000,27,1050443,336,233.285
G,2,818436,vowelstep7.wav,None,1000,27,1052443,339,235.285
G,2,818436,vowelstep5.wav,None,1000,27,1054443,349,237.285
G,2,818436,vowelstep3.wav,None,1000,27,1056443,348,239.285
G,2,818436,vowelstep3_catch.wav,2,224,27,1058443,360,241.285
G,2,818436,sinestep1.wav,None,1000,27,1060443,1098,243.285
G,2,818436,silence.wav,None,1000,27,1062443,339,245.285
G,2,818436,sinestep7.wav,None,1000,27,1064443,337,247.285
G,2,818436,sinestep1.wav,None,1000,27,1066443,349,249.285
G,2,818436,sinestep3.wav,None,1000,27,1068443,346,251.285
G,2,818436,vowelstep3.wav,None,1000,27,1070443,349,253.285
G,2,818436,vowelstep1_catch.wav,2,226,27,1072443,345,255.285
G,2,818436,sinestep7.wav,None,1000,27,1074443,1131,257.285
G,2,818436,silence.wav,None,1000,27,1076444,339,259.285
G,2,818436,sinestep5.wav,None,1000,27,1078444,335,261.285
G,2,818436,sinestep5.wav,None,1000,27,1080444,333,263.285
G,2,818436,vowelstep5.wav,None,1000,27,1082443,349,265.285
G,2,818436,sinestep5.wav,None,1000,27,1084443,342,267.285
G,2,818436,sinestep7.wav,None,1000,27,1086443,347,269.285
G,2,818436,silence.wav,None,1000,27,1088443,357,271.285
G,2,818436,vowelstep7_catch.wav,2,183,27,1090443,337,273.285
G,2,818436,vowelstep5.wav,None,1000,27,1092444,1155,275.285
G,2,818436,silence.wav,None,1000,27,1094444,335,277.285
G,2,818436,sinestep3.wav,None,1000,27,1096444,347,279.285
G,2,818436,vowelstep5.wav,None,1000,27,1098444,347,281.285
G,2,818436,silence.wav,None,1000,27,1100444,342,283.285
G,2,818436,vowelstep1.wav,None,1000,27,1102444,327,285.285
G,2,818436,sinestep1.wav,None,1000,27,1104444,331,287.285
G,2,818436,vowelstep3.wav,None,1000,27,1106443,333,289.285
G,2,818436,vowelstep7.wav,None,1000,27,1108443,330,291.285
G,2,818436,vowelstep7.wav,None,1000,27,1110444,344,293.285
G,2,818436,sinestep1.wav,None,1000,27,1112444,342,295.285
G,2,818436,vowelstep5.wav,None,1000,27,1114444,344,297.285
G,2,818436,silence.wav,None,1000,27,1116444,353,299.285
G,2,818436,sinestep1.wav,None,1000,27,1118444,330,301.285
G,2,818436,vowelstep7.wav,None,1000,27,1120444,334,303.285
G,2,818436,vowelstep5_catch.wav,2,186,27,1122444,330,305.285
G,2,818436,vowelstep3.wav,None,1000,27,1124444,1157,307.285
G,2,818436,vowelstep3_catch.wav,2,202,27,1126444,344,309.285
G,2,818436,sinestep7.wav,None,1000,27,1128445,1118,311.285
G,2,818436,sinestep5.wav,None,1000,27,1130444,353,313.285
G,2,818436,vowelstep1.wav,None,1000,27,1132444,330,315.285
G,2,818436,vowelstep3.wav,None,1000,27,1134444,333,317.285
G,2,818436,vowelstep1.wav,None,1000,27,1136444,332,319.285
J,3,1210538,sinestep5_catch.wav,2,394,27,1210545,0,1.285
J,3,1210538,sinestep5.wav,None,1000,27,1212545,922,3.285
J,3,1210538,sinestep3.wav,None,1000,27,1214545,332,5.285
J,3,1210538,sinestep1.wav,None,1000,27,1216546,329,7.285
J,3,1210538,sinestep7.wav,None,1000,27,1218546,342,9.285
J,3,1210538,vowelstep3.wav,None,1000,27,1220546,340,11.285
J,3,1210538,sinestep1.wav,None,1000,27,1222546,341,13.285
J,3,1210538,vowelstep5.wav,None,1000,27,1224546,341,15.285
J,3,1210538,vowelstep3.wav,None,1000,27,1226546,347,17.285
J,3,1210538,vowelstep1.wav,None,1000,27,1228545,330,19.285
J,3,1210538,vowelstep1.wav,None,1000,27,1230545,329,21.285
J,3,1210538,sinestep3.wav,None,1000,27,1232546,326,23.285
J,3,1210538,silence.wav,None,1000,27,1234546,339,25.285
J,3,1210538,vowelstep7.wav,None,1000,27,1236546,335,27.285
J,3,1210538,sinestep3.wav,None,1000,27,1238546,338,29.285
J,3,1210538,sinestep7.wav,None,1000,27,1240546,319,31.285
J,3,1210538,silence.wav,None,1000,27,1242546,317,33.285
J,3,1210538,vowelstep5.wav,None,1000,27,1244546,330,35.285
J,3,1210538,sinestep1.wav,None,1000,27,1246546,329,37.285
J,3,1210538,sinestep1_catch.wav,2,137,27,1248546,339,39.285
J,3,1210538,sinestep7.wav,None,1000,27,1250547,1201,41.285
J,3,1210538,vowelstep7.wav,None,1000,27,1252546,337,43.285
J,3,1210538,sinestep3_catch.wav,2,54,27,1254546,348,45.285
J,3,1210538,vowelstep3.wav,None,1000,27,1256546,1292,47.285
J,3,1210538,vowelstep7.wav,None,1000,27,1258546,347,49.285
J,3,1210538,sinestep1.wav,None,1000,27,1260546,352,51.285
J,3,1210538,vowelstep3.wav,None,1000,27,1262546,335,53.285
J,3,1210538,vowelstep1.wav,None,1000,27,1264546,334,55.285
J,3,1210538,sinestep5.wav,None,1000,27,1266546,335,57.285
J,3,1210538,sinestep5_catch.wav,2,101,27,1268547,346,59.285
J,3,1210538,sinestep5.wav,None,1000,27,1270547,1239,61.285
J,3,1210538,vowelstep7.wav,None,1000,27,1272547,323,63.285
J,3,1210538,sinestep7.wav,None,1000,27,1274547,356,65.285
J,3,1210538,vowelstep1.wav,None,1000,27,1276546,334,67.285
J,3,1210538,sinestep7_catch.wav,2,164,27,1278546,338,69.285
J,3,1210538,silence.wav,None,1000,27,1280546,1170,71.285
J,3,1210538,vowelstep5.wav,None,1000,27,1282546,338,73.285
J,3,1210538,sinestep5.wav,None,1000,27,1284546,342,75.285
J,3,1210538,sinestep5.wav,None,1000,27,1286547,347,77.285
J,3,1210538,vowelstep3.wav,None,1000,27,1288547,344,79.285
J,3,1210538,vowelstep5.wav,None,1000,27,1290547,357,81.285
J,3,1210538,sinestep3.wav,None,1000,27,1292547,333,83.285
J,3,1210538,silence.wav,None,1000,27,1294547,335,85.285
J,3,1210538,vowelstep3.wav,None,1000,27,1296547,334,87.285
J,3,1210538,vowelstep7.wav,None,1000,27,1298547,345,89.285
J,3,1210538,silence.wav,None,1000,27,1300546,345,91.285
J,3,1210538,sinestep3.wav,None,1000,27,1302547,355,93.285
J,3,1210538,silence.wav,None,1000,27,1304547,324,95.285
J,3,1210538,sinestep1.wav,None,1000,27,1306547,332,97.285
J,3,1210538,sinestep5_catch.wav,2,152,27,1308547,329,99.285
J,3,1210538,sinestep7.wav,None,1000,27,1310547,1189,101.285
J,3,1210538,sinestep5.wav,None,1000,27,1312547,338,103.285
J,3,1210538,sinestep5.wav,None,1000,27,1314547,342,105.285
J,3,1210538,sinestep3.wav,None,1000,27,1316547,342,107.285
J,3,1210538,sinestep3_catch.wav,2,63,27,1318547,327,109.285
J,3,1210538,sinestep3.wav,None,1000,27,1320548,1267,111.285
J,3,1210538,silence.wav,None,1000,27,1322548,332,113.285
J,3,1210538,sinestep1.wav,None,1000,27,1324548,330,115.285
J,3,1210538,silence.wav,None,1000,27,1326547,345,117.285
J,3,1210538,vowelstep3.wav,None,1000,27,1328547,343,119.285
J,3,1210538,vowelstep5.wav,None,1000,27,1330547,343,121.285
J,3,1210538,vowelstep7.wav,None,1000,27,1332547,319,123.285
J,3,1210538,silence.wav,None,1000,27,1334547,333,125.285
J,3,1210538,sinestep1.wav,None,1000,27,1336547,332,127.285
J,3,1210538,sinestep3.wav,None,1000,27,1338548,332,129.285
J,3,1210538,sinestep7.wav,None,1000,27,1340548,342,131.285
J,3,1210538,silence.wav,None,1000,27,1342548,342,133.285
J,3,1210538,sinestep1.wav,None,1000,27,1344548,342,135.285
J,3,1210538,vowelstep7.wav,None,1000,27,1346548,351,137.285
J,3,1210538,sinestep5.wav,None,1000,27,1348547,330,139.285
J,3,1210538,vowelstep1.wav,None,1000,27,1350547,331,141.285
J,3,1210538,vowelstep7.wav,None,1000,27,1352547,332,143.285
J,3,1210538,vowelstep3.wav,None,1000,27,1354548,342,145.285
J,3,1210538,vowelstep3.wav,None,1000,27,1356548,334,147.285
J,3,1210538,sinestep7.wav,None,1000,27,1358548,337,149.285
J,3,1210538,vowelstep5.wav,None,1000,27,1360548,348,151.285
J,3,1210538,silence.wav,None,1000,27,1362548,329,153.285
J,3,1210538,sinestep1.wav,None,1000,27,1364548,328,155.285
J,3,1210538,sinestep3.wav,None,1000,27,1366548,324,157.285
J,3,1210538,silence.wav,None,1000,27,1368548,329,159.285
J,3,1210538,sinestep1.wav,None,1000,27,1370548,340,161.285
J,3,1210538,vowelstep7.wav,None,1000,27,1372549,337,163.285
J,3,1210538,vowelstep7.wav,None,1000,27,1374548,349,165.285
J,3,1210538,sinestep1_catch.wav,2,154,27,1376548,318,167.285
J,3,1210538,vowelstep1_catch.wav,2,156,27,1378548,1175,169.285
J,3,1210538,vowelstep1.wav,None,1000,27,1380548,1170,171.285
J,3,1210538,vowelstep7.wav,None,1000,27,1382548,339,173.285
J,3,1210538,sinestep1.wav,None,1000,27,1384548,340,175.285
J,3,1210538,vowelstep5.wav,None,1000,27,1386548,339,177.285
J,3,1210538,vowelstep5.wav,None,1000,27,1388548,347,179.285
J,3,1210538,sinestep5.wav,None,1000,27,1390549,331,181.285
J,3,1210538,sinestep7.wav,None,1000,27,1392549,327,183.285
J,3,1210538,sinestep7.wav,None,1000,27,1394549,329,185.285
J,3,1210538,sinestep1.wav,None,1000,27,1396549,337,187.285
J,3,1210538,vowelstep1.wav,None,1000,27,1398548,338,189.285
J,3,1210538,silence.wav,None,1000,27,1400548,337,191.285
J,3,1210538,sinestep5.wav,None,1000,27,1402548,348,193.285
J,3,1210538,vowelstep5.wav,None,1000,27,1404548,312,195.285
J,3,1210538,vowelstep1.wav,None,1000,27,1406548,324,197.285
J,3,1210538,vowelstep1.wav,None,1000,27,1408549,324,199.285
J,3,1210538,sinestep3.wav,None,1000,27,1410549,335,201.285
J,3,1210538,sinestep3.wav,None,1000,27,1412549,335,203.285
J,3,1210538,silence.wav,None,1000,27,1414549,331,205.285
J,3,1210538,sinestep5.wav,None,1000,27,1416549,336,207.285
J,3,1210538,vowelstep1.wav,None,1000,27,1418549,323,209.285
J,3,1210538,vowelstep5.wav,None,1000,27,1420549,328,211.285
J,3,1210538,vowelstep3.wav,None,1000,27,1422548,326,213.285
J,3,1210538,vowelstep3.wav,None,1000,27,1424549,329,215.285
J,3,1210538,silence.wav,None,1000,27,1426549,333,217.285
J,3,1210538,sinestep1.wav,None,1000,27,1428549,336,219.285
J,3,1210538,vowelstep3.wav,None,1000,27,1430549,337,221.285
J,3,1210538,sinestep7.wav,None,1000,27,1432549,346,223.285
J,3,1210538,vowelstep7.wav,None,1000,27,1434549,325,225.285
J,3,1210538,silence.wav,None,1000,27,1436549,327,227.285
J,3,1210538,vowelstep5.wav,None,1000,27,1438549,325,229.285
J,3,1210538,silence.wav,None,1000,27,1440549,336,231.285
J,3,1210538,sinestep3.wav,None,1000,27,1442550,336,233.285
J,3,1210538,vowelstep5.wav,None,1000,27,1444550,332,235.285
J,3,1210538,vowelstep3.wav,None,1000,27,1446549,316,237.285
J,3,1210538,vowelstep5.wav,None,1000,27,1448549,324,239.285
J,3,1210538,vowelstep7.wav,None,1000,27,1450549,326,241.285
J,3,1210538,vowelstep1.wav,None,1000,27,1452549,321,243.285
J,3,1210538,sinestep7.wav,None,1000,27,1454549,337,245.285
J,3,1210538,sinestep7.wav,None,1000,27,1456549,336,247.285
J,3,1210538,silence.wav,None,1000,27,1458549,337,249.285
J,3,1210538,vowelstep1.wav,None,1000,27,1460550,324,251.285
J,3,1210538,vowelstep3_catch.wav,2,194,27,1462550,324,253.285
J,3,1210538,vowelstep1.wav,None,1000,27,1464550,1130,255.285
J,3,1210538,vowelstep5_catch.wav,2,86,27,1466550,326,257.285
J,3,1210538,silence.wav,None,1000,27,1468550,1226,259.285
J,3,1210538,sinestep5.wav,None,1000,27,1470549,335,261.285
J,3,1210538,vowelstep1.wav,None,1000,27,1472549,335,263.285
J,3,1210538,sinestep5.wav,None,1000,27,1474549,315,265.285
J,3,1210538,vowelstep3.wav,None,1000,27,1476549,325,267.285
J,3,1210538,sinestep5.wav,None,1000,27,1478550,320,269.285
J,3,1210538,sinestep7.wav,None,1000,27,1480550,324,271.285
J,3,1210538,silence.wav,None,1000,27,1482550,329,273.285
J,3,1210538,vowelstep7_catch.wav,2,163,27,1484550,334,275.285
J,3,1210538,sinestep3.wav,None,1000,27,1486550,1169,277.285
J,3,1210538,vowelstep5.wav,None,1000,27,1488550,334,279.285
J,3,1210538,silence.wav,None,1000,27,1490550,324,281.285
J,3,1210538,silence.wav,None,1000,27,1492550,323,283.285
J,3,1210538,silence.wav,None,1000,27,1494551,320,285.285
J,3,1210538,vowelstep7.wav,None,1000,27,1496550,329,287.285
J,3,1210538,sinestep3.wav,None,1000,27,1498550,332,289.285
J,3,1210538,vowelstep5_catch.wav,2,91,27,1500550,330,291.285
J,3,1210538,silence.wav,None,1000,27,1502550,1252,293.285
J,3,1210538,sinestep7.wav,None,1000,27,1504550,342,295.285
J,3,1210538,vowelstep1.wav,None,1000,27,1506550,344,297.285
J,3,1210538,silence.wav,None,1000,27,1508550,319,299.285
J,3,1210538,sinestep1.wav,None,1000,27,1510550,332,301.285
J,3,1210538,sinestep5.wav,None,1000,27,1512551,334,303.285
J,3,1210538,vowelstep5.wav,None,1000,27,1514551,331,305.285
J,3,1210538,vowelstep3.wav,None,1000,27,1516551,343,307.285
J,3,1210538,sinestep7.wav,None,1000,27,1518551,312,309.285
J,3,1210538,vowelstep7.wav,None,1000,27,1520550,341,311.285
J,3,1210538,vowelstep3_catch.wav,2,155,27,1522550,342,313.285
J,3,1210538,vowelstep1_catch.wav,2,69,27,1524550,1194,315.285
J,3,1210538,sinestep3.wav,None,1000,27,1526550,1251,317.285
J,3,1210538,sinestep1.wav,None,1000,27,1528550,332,319.285
E,4,1590684,vowelstep7.wav,None,1000,27,1590702,0,1.285
E,4,1590684,sinestep3.wav,None,1000,27,1592701,324,3.285
E,4,1590684,sinestep5.wav,None,1000,27,1594701,334,5.285
E,4,1590684,sinestep1.wav,None,1000,27,1596701,335,7.285
E,4,1590684,sinestep5.wav,None,1000,27,1598701,335,9.285
E,4,1590684,silence.wav,None,1000,27,1600702,170,11.285
E,4,1590684,vowelstep1.wav,None,1000,27,1602702,323,13.285
E,4,1590684,vowelstep7.wav,None,1000,27,1604702,323,15.285
E,4,1590684,vowelstep1.wav,None,1000,27,1606702,296,17.285
E,4,1590684,sinestep1_catch.wav,2,132,27,1608702,320,19.285
E,4,1590684,vowelstep5.wav,None,1000,27,1610702,1198,21.285
E,4,1590684,sinestep5.wav,None,1000,27,1612702,330,23.285
E,4,1590684,vowelstep5.wav,None,1000,27,1614702,331,25.285
E,4,1590684,vowelstep3.wav,None,1000,27,1616701,337,27.285
E,4,1590684,sinestep1.wav,None,1000,27,1618702,320,29.285
E,4,1590684,vowelstep5.wav,None,1000,27,1620702,317,31.285
E,4,1590684,silence.wav,None,1000,27,1622702,321,33.285
E,4,1590684,silence.wav,None,1000,27,1624702,332,35.285
E,4,1590684,sinestep3.wav,None,1000,27,1626702,330,37.285
E,4,1590684,sinestep3.wav,None,1000,27,1628702,333,39.285
E,4,1590684,sinestep3.wav,None,1000,27,1630702,326,41.285
E,4,1590684,sinestep1.wav,None,1000,27,1632702,319,43.285
E,4,1590684,vowelstep1.wav,None,1000,27,1634703,324,45.285
E,4,1590684,sinestep1.wav,None,1000,27,1636703,317,47.285
E,4,1590684,vowelstep7.wav,None,1000,27,1638703,333,49.285
E,4,1590684,vowelstep5.wav,None,1000,27,1640703,329,51.285
E,4,1590684,sinestep7.wav,None,1000,27,1642702,333,53.285
E,4,1590684,sinestep1.wav,None,1000,27,1644702,331,55.285
E,4,1590684,vowelstep5.wav,None,1000,27,1646702,322,57.285
E,4,1590684,sinestep3.wav,None,1000,27,1648702,319,59.285
E,4,1590684,vowelstep1.wav,None,1000,27,1650702,319,61.285
E,4,1590684,vowelstep5.wav,None,1000,27,1652703,322,63.285
E,4,1590684,vowelstep3.wav,None,1000,27,1654703,331,65.285
E,4,1590684,sinestep1.wav,None,1000,27,1656703,331,67.285
E,4,1590684,vowelstep3.wav,None,1000,27,1658703,342,69.285
E,4,1590684,silence.wav,None,1000,27,1660703,312,71.285
E,4,1590684,vowelstep3.wav,None,1000,27,1662703,321,73.285
E,4,1590684,sinestep3_catch.wav,2,45,27,1664702,321,75.285
E,4,1590684,sinestep3.wav,None,1000,27,1666702,1285,77.285
E,4,1590684,vowelstep3.wav,None,1000,27,1668702,332,79.285
E,4,1590684,vowelstep7.wav,None,1000,27,1670687,332,81.285
E,4,1590684,silence.wav,None,1000,27,1672703,330,83.285
E,4,1590684,sinestep3.wav,None,1000,27,1674703,321,85.285
E,4,1590684,silence.wav,None,1000,27,1676703,320,87.285
E,4,1590684,sinestep1.wav,None,1000,27,1678703,320,89.285
E,4,1590684,sinestep5_catch.wav,2,52,27,1680703,320,91.285
E,4,1590684,vowelstep3.wav,None,1000,27,1682703,1276,93.285
E,4,1590684,sinestep5.wav,None,1000,27,1684703,330,95.285
E,4,1590684,vowelstep7.wav,None,1000,27,1686687,332,97.285
E,4,1590684,sinestep1.wav,None,1000,27,1688687,338,99.285
E,4,1590684,sinestep5.wav,None,1000,27,1690703,339,101.285
E,4,1590684,sinestep5.wav,None,1000,27,1692703,316,103.285
E,4,1590684,vowelstep7.wav,None,1000,27,1694703,318,105.285
E,4,1590684,vowelstep3.wav,None,1000,27,1696703,326,107.285
E,4,1590684,vowelstep7.wav,None,1000,27,1698703,330,109.285
E,4,1590684,sinestep5.wav,None,1000,27,1700703,332,111.285
E,4,1590684,vowelstep3.wav,None,1000,27,1702703,340,113.285
E,4,1590684,vowelstep7.wav,None,1000,27,1704687,316,115.285
E,4,1590684,sinestep3.wav,None,1000,27,1706687,338,117.285
E,4,1590684,vowelstep7.wav,None,1000,27,1708687,348,119.285
E,4,1590684,silence.wav,None,1000,27,1710704,350,121.285
E,4,1590684,silence.wav,None,1000,27,1712704,327,123.285
E,4,1590684,sinestep7.wav,None,1000,27,1714703,328,125.285
E,4,1590684,sinestep7_catch.wav,2,263,27,1716703,338,127.285
E,4,1590684,sinestep7.wav,None,1000,27,1718687,1055,129.285
E,4,1590684,silence.wav,None,1000,27,1720703,339,131.285
E,4,1590684,sinestep7_catch.wav,2,119,27,1722687,318,133.285
E,4,1590684,sinestep7.wav,None,1000,27,1724687,1227,135.285
E,4,1590684,sinestep5_catch.wav,2,49,27,1726687,348,137.285
E,4,1590684,sinestep1.wav,None,1000,27,1728704,1305,139.285
E,4,1590684,sinestep1.wav,None,1000,27,1730704,303,141.285
E,4,1590684,sinestep1.wav,None,1000,27,1732704,316,143.285
E,4,1590684,sinestep3.wav,None,1000,27,1734687,317,145.285
E,4,1590684,vowelstep5.wav,None,1000,27,1736687,347,147.285
E,4,1590684,silence.wav,None,1000,27,1738703,348,149.285
E,4,1590684,sinestep3_catch.wav,2,58,27,1740688,325,151.285
E,4,1590684,silence.wav,None,1000,27,1742688,1267,153.285
E,4,1590684,sinestep7.wav,None,1000,27,1744688,326,155.285
E,4,1590684,sinestep5.wav,None,1000,27,1746704,336,157.285
E,4,1590684,silence.wav,None,1000,27,1748704,345,159.285
E,4,1590684,vowelstep5.wav,None,1000,27,1750687,346,161.285
E,4,1590684,vowelstep1.wav,None,1000,27,1752687,346,163.285
E,4,1590684,vowelstep3.wav,None,1000,27,1754687,346,165.285
E,4,1590684,sinestep5.wav,None,1000,27,1756688,356,167.285
E,4,1590684,sinestep7.wav,None,1000,27,1758688,333,169.285
E,4,1590684,vowelstep1.wav,None,1000,27,1760688,331,171.285
E,4,1590684,vowelstep7.wav,None,1000,27,1762688,333,173.285
E,4,1590684,sinestep3.wav,None,1000,27,1764704,343,175.285
E,4,1590684,silence.wav,None,1000,27,1766688,322,177.285
E,4,1590684,sinestep1_catch.wav,2,136,27,1768688,345,179.285
E,4,1590684,sinestep7.wav,None,1000,27,1770687,1218,181.285
E,4,1590684,vowelstep1.wav,None,1000,27,1772687,326,183.285
E,4,1590684,sinestep5.wav,None,1000,27,1774688,335,185.285
E,4,1590684,sinestep5.wav,None,1000,27,1776688,333,187.285
E,4,1590684,vowelstep1.wav,None,1000,27,1778688,342,189.285
E,4,1590684,sinestep7.wav,None,1000,27,1780688,342,191.285
E,4,1590684,sinestep3.wav,None,1000,27,1782688,343,193.285
E,4,1590684,sinestep7.wav,None,1000,27,1784688,350,195.285
E,4,1590684,silence.wav,None,1000,27,1786688,324,197.285
E,4,1590684,vowelstep1.wav,None,1000,27,1788688,332,199.285
E,4,1590684,sinestep1.wav,None,1000,27,1790688,332,201.285
E,4,1590684,vowelstep1.wav,None,1000,27,1792689,340,203.285
E,4,1590684,vowelstep1.wav,None,1000,27,1794688,340,205.285
E,4,1590684,vowelstep1_catch.wav,2,154,27,1796688,340,207.285
E,4,1590684,vowelstep1.wav,None,1000,27,1798688,1187,209.285
E,4,1590684,vowelstep1.wav,None,1000,27,1800688,331,211.285
E,4,1590684,silence.wav,None,1000,27,1802688,332,213.285
E,4,1590684,sinestep7.wav,None,1000,27,1804688,332,215.285
E,4,1590684,vowelstep7.wav,None,1000,27,1806688,333,217.285
E,4,1590684,vowelstep3_catch.wav,2,168,27,1808688,342,219.285
E,4,1590684,vowelstep5.wav,None,1000,27,1810689,1172,221.285
E,4,1590684,sinestep3.wav,None,1000,27,1812689,351,223.285
E,4,1590684,silence.wav,None,1000,27,1814689,322,225.285
E,4,1590684,sinestep1.wav,None,1000,27,1816689,331,227.285
E,4,1590684,sinestep5.wav,None,1000,27,1818688,332,229.285
E,4,1590684,sinestep5.wav,None,1000,27,1820688,341,231.285
E,4,1590684,sinestep3.wav,None,1000,27,1822688,341,233.285
E,4,1590684,sinestep5.wav,None,1000,27,1824688,341,235.285
E,4,1590684,vowelstep3.wav,None,1000,27,1826689,341,237.285
E,4,1590684,sinestep7.wav,None,1000,27,1828689,330,239.285
E,4,1590684,sinestep7.wav,None,1000,27,1830689,350,241.285
E,4,1590684,silence.wav,None,1000,27,1832689,349,243.285
E,4,1590684,sinestep3.wav,None,1000,27,1834689,329,245.285
E,4,1590684,sinestep3.wav,None,1000,27,1836689,339,247.285
E,4,1590684,vowelstep3.wav,None,1000,27,1838689,339,249.285
E,4,1590684,silence.wav,None,1000,27,1840689,339,251.285
E,4,1590684,sinestep7.wav,None,1000,27,1842689,346,253.285
E,4,1590684,silence.wav,None,1000,27,1844689,348,255.285
E,4,1590684,vowelstep7.wav,None,1000,27,1846689,348,257.285
E,4,1590684,vowelstep3.wav,None,1000,27,1848689,323,259.285
E,4,1590684,silence.wav,None,1000,27,1850689,338,261.285
E,4,1590684,vowelstep3.wav,None,1000,27,1852689,337,263.285
E,4,1590684,vowelstep1.wav,None,1000,27,1854689,338,265.285
E,4,1590684,vowelstep5.wav,None,1000,27,1856689,344,267.285
E,4,1590684,silence.wav,None,1000,27,1858689,346,269.285
E,4,1590684,vowelstep3.wav,None,1000,27,1860689,349,271.285
E,4,1590684,sinestep1.wav,None,1000,27,1862690,357,273.285
E,4,1590684,vowelstep5_catch.wav,2,101,27,1864690,335,275.285
E,4,1590684,sinestep7.wav,None,1000,27,1866690,1237,277.285
E,4,1590684,sinestep7.wav,None,1000,27,1868689,336,279.285
E,4,1590684,vowelstep7.wav,None,1000,27,1870689,338,281.285
E,4,1590684,silence.wav,None,1000,27,1872689,348,283.285
E,4,1590684,sinestep5.wav,None,1000,27,1874689,348,285.285
E,4,1590684,silence.wav,None,1000,27,1876689,328,287.285
E,4,1590684,silence.wav,None,1000,27,1878689,328,289.285
E,4,1590684,vowelstep5.wav,None,1000,27,1880690,332,291.285
E,4,1590684,vowelstep5.wav,None,1000,27,1882690,335,293.285
E,4,1590684,silence.wav,None,1000,27,1884690,343,295.285
E,4,1590684,vowelstep5.wav,None,1000,27,1886690,345,297.285
E,4,1590684,vowelstep7_catch.wav,2,146,27,1888690,343,299.285
E,4,1590684,vowelstep7_catch.wav,2,103,27,1890690,1197,301.285
E,4,1590684,vowelstep5.wav,None,1000,27,1892689,1230,303.285
E,4,1590684,sinestep1.wav,None,1000,27,1894689,331,305.285
E,4,1590684,vowelstep3.wav,None,1000,27,1896690,334,307.285
E,4,1590684,vowelstep5_catch.wav,2,132,27,1898690,332,309.285
E,4,1590684,vowelstep7.wav,None,1000,27,1900690,1212,311.285
E,4,1590684,vowelstep5.wav,None,1000,27,1902690,343,313.285
E,4,1590684,vowelstep7.wav,None,1000,27,1904690,349,315.285
E,4,1590684,vowelstep1.wav,None,1000,27,1906690,334,317.285
E,4,1590684,vowelstep3_catch.wav,2,163,27,1908690,333,319.285
H,5,1968279,sinestep3.wav,None,1000,27,1968291,0,1.285
H,5,1968279,sinestep7.wav,None,1000,27,1970291,324,3.285
H,5,1968279,sinestep3.wav,None,1000,27,1972291,336,5.285
H,5,1968279,vowelstep3.wav,None,1000,27,1974291,335,7.285
H,5,1968279,vowelstep1.wav,None,1000,27,1976291,336,9.285
H,5,1968279,sinestep7.wav,None,1000,27,1978291,345,11.285
H,5,1968279,vowelstep3.wav,None,1000,27,1980291,315,13.285
H,5,1968279,silence.wav,None,1000,27,1982291,325,15.285
H,5,1968279,vowelstep1.wav,None,1000,27,1984292,321,17.285
H,5,1968279,sinestep5.wav,None,1000,27,1986292,334,19.285
H,5,1968279,sinestep7.wav,None,1000,27,1988291,332,21.285
H,5,1968279,vowelstep7.wav,None,1000,27,1990291,334,23.285
H,5,1968279,vowelstep1_catch.wav,2,77,27,1992291,336,25.285
H,5,1968279,sinestep5.wav,None,1000,27,1994291,1265,27.285
H,5,1968279,vowelstep5.wav,None,1000,27,1996291,324,29.285
H,5,1968279,silence.wav,None,1000,27,1998291,323,31.285
H,5,1968279,vowelstep3_catch.wav,2,155,27,2000291,320,33.285
H,5,1968279,sinestep7.wav,None,1000,27,2002292,1172,35.285
H,5,1968279,sinestep5.wav,None,1000,27,2004292,334,37.285
H,5,1968279,silence.wav,None,1000,27,2006292,331,39.285
H,5,1968279,vowelstep3.wav,None,1000,27,2008292,314,41.285
H,5,1968279,vowelstep1.wav,None,1000,27,2010292,320,43.285
H,5,1968279,vowelstep1.wav,None,1000,27,2012292,323,45.285
H,5,1968279,vowelstep3.wav,None,1000,27,2014291,323,47.285
H,5,1968279,sinestep3.wav,None,1000,27,2016291,334,49.285
H,5,1968279,vowelstep1.wav,None,1000,27,2018291,330,51.285
H,5,1968279,sinestep7.wav,None,1000,27,2020292,335,53.285
H,5,1968279,vowelstep7.wav,None,1000,27,2022292,312,55.285
H,5,1968279,vowelstep5_catch.wav,2,61,27,2024292,324,57.285
H,5,1968279,vowelstep5.wav,None,1000,27,2026292,1261,59.285
H,5,1968279,vowelstep3.wav,None,1000,27,2028292,323,61.285
H,5,1968279,vowelstep7_catch.wav,2,150,27,2030292,332,63.285
H,5,1968279,sinestep3.wav,None,1000,27,2032292,1182,65.285
H,5,1968279,sinestep1.wav,None,1000,27,2034292,327,67.285
H,5,1968279,sinestep7.wav,None,1000,27,2036292,339,69.285
H,5,1968279,silence.wav,None,1000,27,2038292,317,71.285
H,5,1968279,vowelstep1.wav,None,1000,27,2040292,320,73.285
H,5,1968279,vowelstep7.wav,None,1000,27,2042292,321,75.285
H,5,1968279,sinestep7.wav,None,1000,27,2044292,325,77.285
H,5,1968279,sinestep1.wav,None,1000,27,2046292,327,79.285
H,5,1968279,sinestep7.wav,None,1000,27,2048292,329,81.285
H,5,1968279,sinestep1.wav,None,1000,27,2050292,305,83.285
H,5,1968279,vowelstep5.wav,None,1000,27,2052292,322,85.285
H,5,1968279,sinestep3.wav,None,1000,27,2054293,319,87.285
H,5,1968279,vowelstep5.wav,None,1000,27,2056293,321,89.285
H,5,1968279,silence.wav,None,1000,27,2058293,327,91.285
H,5,1968279,silence.wav,None,1000,27,2060293,326,93.285
H,5,1968279,sinestep5.wav,None,1000,27,2062292,327,95.285
H,5,1968279,sinestep3.wav,None,1000,27,2064292,328,97.285
H,5,1968279,sinestep7.wav,None,1000,27,2066292,315,99.285
H,5,1968279,sinestep7_catch.wav,2,100,27,2068292,317,101.285
H,5,1968279,silence.wav,None,1000,27,2070292,1216,103.285
H,5,1968279,sinestep3.wav,None,1000,27,2072293,318,105.285
H,5,1968279,silence.wav,None,1000,27,2074293,327,107.285
H,5,1968279,vowelstep1.wav,None,1000,27,2076293,327,109.285
H,5,1968279,vowelstep7.wav,None,1000,27,2078293,337,111.285
H,5,1968279,sinestep5.wav,None,1000,27,2080293,336,113.285
H,5,1968279,silence.wav,None,1000,27,2082293,313,115.285
H,5,1968279,vowelstep7.wav,None,1000,27,2084293,336,117.285
H,5,1968279,vowelstep3.wav,None,1000,27,2086292,347,119.285
H,5,1968279,sinestep5.wav,None,1000,27,2088292,328,121.285
H,5,1968279,sinestep1.wav,None,1000,27,2090293,321,123.285
H,5,1968279,vowelstep3.wav,None,1000,27,2092293,337,125.285
H,5,1968279,vowelstep3.wav,None,1000,27,2094293,338,127.285
H,5,1968279,vowelstep5.wav,None,1000,27,2096293,339,129.285
H,5,1968279,vowelstep1.wav,None,1000,27,2098293,344,131.285
H,5,1968279,vowelstep7.wav,None,1000,27,2100293,315,133.285
H,5,1968279,vowelstep3.wav,None,1000,27,2102293,321,135.285
H,5,1968279,vowelstep5.wav,None,1000,27,2104293,328,137.285
H,5,1968279,vowelstep5.wav,None,1000,27,2106294,337,139.285
H,5,1968279,sinestep7.wav,None,1000,27,2108294,332,141.285
H,5,1968279,vowelstep1.wav,None,1000,27,2110294,336,143.285
H,5,1968279,sinestep3.wav,None,1000,27,2112293,336,145.285
H,5,1968279,sinestep1.wav,None,1000,27,2114293,322,147.285
H,5,1968279,vowelstep1.wav,None,1000,27,2116293,325,149.285
H,5,1968279,sinestep5_catch.wav,2,33,27,2118293,320,151.285
H,5,1968279,sinestep7.wav,None,1000,27,2120293,1292,153.285
H,5,1968279,sinestep3_catch.wav,2,15,27,2122293,331,155.285
H,5,1968279,sinestep7.wav,None,1000,27,2124294,1319,157.285
H,5,1968279,sinestep5.wav,None,1000,27,2126294,331,159.285
H,5,1968279,silence.wav,None,1000,27,2128294,346,161.285
H,5,1968279,sinestep1_catch.wav,2,171,27,2130294,320,163.285
H,5,1968279,vowelstep7.wav,None,1000,27,2132294,1148,165.285
H,5,1968279,vowelstep7.wav,None,1000,27,2134294,325,167.285
H,5,1968279,sinestep7.wav,None,1000,27,2136293,336,169.285
H,5,1968279,sinestep3.wav,None,1000,27,2138293,335,171.285
H,5,1968279,sinestep5.wav,None,1000,27,2140293,332,173.285
H,5,1968279,vowelstep1_catch.wav,2,73,27,2142294,315,175.285
H,5,1968279,vowelstep1.wav,None,1000,27,2144294,1246,177.285
H,5,1968279,sinestep3.wav,None,1000,27,2146294,324,179.285
H,5,1968279,sinestep3.wav,None,1000,27,2148294,324,181.285
H,5,1968279,vowelstep5.wav,None,1000,27,2150294,333,183.285
H,5,1968279,sinestep1.wav,None,1000,27,2152294,332,185.285
H,5,1968279,sinestep1.wav,None,1000,27,2154294,331,187.285
H,5,1968279,vowelstep7.wav,None,1000,27,2156294,334,189.285
H,5,1968279,sinestep1.wav,None,1000,27,2158294,319,191.285
H,5,1968279,sinestep5.wav,None,1000,27,2160294,322,193.285
H,5,1968279,vowelstep3_catch.wav,2,121,27,2162294,323,195.285
H,5,1968279,sinestep1.wav,None,1000,27,2164294,1212,197.285
H,5,1968279,silence.wav,None,1000,27,2166294,334,199.285
H,5,1968279,vowelstep1.wav,None,1000,27,2168294,331,201.285
H,5,1968279,vowelstep5_catch.wav,2,129,27,2170294,343,203.285
H,5,1968279,sinestep5.wav,None,1000,27,2172294,1193,205.285
H,5,1968279,sinestep1.wav,None,1000,27,2174294,323,207.285
H,5,1968279,silence.wav,None,1000,27,2176295,323,209.285
H,5,1968279,sinestep3.wav,None,1000,27,2178295,329,211.285
H,5,1968279,silence.wav,None,1000,27,2180295,332,213.285
H,5,1968279,vowelstep7_catch.wav,2,129,27,2182295,331,215.285
H,5,1968279,vowelstep5.wav,None,1000,27,2184294,1200,217.285
H,5,1968279,sinestep7.wav,None,1000,27,2186294,320,219.285
H,5,1968279,silence.wav,None,1000,27,2188294,323,221.285
H,5,1968279,sinestep1.wav,None,1000,27,2190294,315,223.285
H,5,1968279,silence.wav,None,1000,27,2192294,325,225.285
H,5,1968279,silence.wav,None,1000,27,2194295,332,227.285
H,5,1968279,silence.wav,None,1000,27,2196295,334,229.285
H,5,1968279,silence.wav,None,1000,27,2198295,343,231.285
H,5,1968279,sinestep5.wav,None,1000,27,2200295,343,233.285
H,5,1968279,silence.wav,None,1000,27,2202295,319,235.285
H,5,1968279,vowelstep3.wav,None,1000,27,2204295,321,237.285
H,5,1968279,silence.wav,None,1000,27,2206295,331,239.285
H,5,1968279,silence.wav,None,1000,27,2208294,328,241.285
H,5,1968279,vowelstep1_catch.wav,2,233,27,2210294,332,243.285
H,5,1968279,vowelstep5.wav,None,1000,27,2212295,1096,245.285
H,5,1968279,vowelstep7.wav,None,1000,27,2214295,310,247.285
H,5,1968279,vowelstep3_catch.wav,2,83,27,2216295,321,249.285
H,5,1968279,vowelstep1.wav,None,1000,27,2218295,1233,251.285
H,5,1968279,sinestep3.wav,None,1000,27,2220295,320,253.285
H,5,1968279,vowelstep5_catch.wav,2,193,27,2222295,331,255.285
H,5,1968279,vowelstep5.wav,None,1000,27,2224295,1132,257.285
H,5,1968279,silence.wav,None,1000,27,2226295,331,259.285
H,5,1968279,vowelstep7.wav,None,1000,27,2228295,312,261.285
H,5,1968279,sinestep5.wav,None,1000,27,2230296,314,263.285
H,5,1968279,vowelstep5.wav,None,1000,27,2232295,320,265.285
H,5,1968279,vowelstep7.wav,None,1000,27,2234295,317,267.285
H,5,1968279,vowelstep3.wav,None,1000,27,2236295,329,269.285
H,5,1968279,vowelstep3.wav,None,1000,27,2238295,332,271.285
H,5,1968279,silence.wav,None,1000,27,2240295,324,273.285
H,5,1968279,vowelstep3.wav,None,1000,27,2242295,311,275.285
H,5,1968279,sinestep1.wav,None,1000,27,2244295,314,277.285
H,5,1968279,silence.wav,None,1000,27,2246296,317,279.285
H,5,1968279,sinestep1.wav,None,1000,27,2248296,319,281.285
H,5,1968279,vowelstep3.wav,None,1000,27,2250296,329,283.285
H,5,1968279,silence.wav,None,1000,27,2252296,325,285.285
H,5,1968279,vowelstep5.wav,None,1000,27,2254296,325,287.285
H,5,1968279,vowelstep5.wav,None,1000,27,2256295,338,289.285
H,5,1968279,vowelstep1.wav,None,1000,27,2258295,315,291.285
H,5,1968279,sinestep5.wav,None,1000,27,2260295,316,293.285
H,5,1968279,vowelstep7.wav,None,1000,27,2262295,315,295.285
H,5,1968279,vowelstep1.wav,None,1000,27,2264296,328,297.285
H,5,1968279,vowelstep7.wav,None,1000,27,2266296,327,299.285
H,5,1968279,vowelstep3.wav,None,1000,27,2268296,336,301.285
H,5,1968279,sinestep1.wav,None,1000,27,2270296,334,303.285
H,5,1968279,sinestep5.wav,None,1000,27,2272296,318,305.285
H,5,1968279,vowelstep5.wav,None,1000,27,2274296,310,307.285
H,5,1968279,sinestep3.wav,None,1000,27,2276296,315,309.285
H,5,1968279,vowelstep7.wav,None,1000,27,2278296,325,311.285
H,5,1968279,sinestep7.wav,None,1000,27,2280295,324,313.285
H,5,1968279,sinestep5.wav,None,1000,27,2282296,322,315.285
H,5,1968279,sinestep3.wav,None,1000,27,2284296,335,317.285
H,5,1968279,sinestep1.wav,None,1000,27,2286296,312,319.285
C,6,2347923,sinestep1.wav,None,1000,27,2347930,0,1.285
C,6,2347923,vowelstep1.wav,None,1000,27,2349930,336,3.285
C,6,2347923,sinestep1.wav,None,1000,27,2351931,337,5.285
C,6,2347923,sinestep1.wav,None,1000,27,2353931,337,7.285
C,6,2347923,vowelstep1.wav,None,1000,27,2355931,327,9.285
C,6,2347923,sinestep1.wav,None,1000,27,2357931,326,11.285
C,6,2347923,sinestep7.wav,None,1000,27,2359931,323,13.285
C,6,2347923,vowelstep7.wav,None,1000,27,2361930,327,15.285
C,6,2347923,vowelstep3.wav,None,1000,27,2363930,332,17.285
C,6,2347923,vowelstep5.wav,None,1000,27,2365930,335,19.285
C,6,2347923,silence.wav,None,1000,27,2367930,344,21.285
C,6,2347923,sinestep3.wav,None,1000,27,2369931,316,23.285
C,6,2347923,vowelstep5.wav,None,1000,27,2371931,325,25.285
C,6,2347923,sinestep1.wav,None,1000,27,2373931,322,27.285
C,6,2347923,vowelstep1.wav,None,1000,27,2375931,336,29.285
C,6,2347923,vowelstep7.wav,None,1000,27,2377931,335,31.285
C,6,2347923,vowelstep3.wav,None,1000,27,2379931,335,33.285
C,6,2347923,sinestep1.wav,None,1000,27,2381931,335,35.285
C,6,2347923,sinestep5.wav,None,1000,27,2383931,324,37.285
C,6,2347923,silence.wav,None,1000,27,2385930,326,39.285
C,6,2347923,vowelstep7.wav,None,1000,27,2387931,324,41.285
C,6,2347923,vowelstep5.wav,None,1000,27,2389931,351,43.285
C,6,2347923,sinestep5.wav,None,1000,27,2391931,334,45.285
C,6,2347923,silence.wav,None,1000,27,2393931,333,47.285
C,6,2347923,sinestep5.wav,None,1000,27,2395931,335,49.285
C,6,2347923,sinestep1.wav,None,1000,27,2397931,344,51.285
C,6,2347923,silence.wav,None,1000,27,2399931,324,53.285
C,6,2347923,vowelstep1.wav,None,1000,27,2401931,355,55.285
C,6,2347923,vowelstep1.wav,None,1000,27,2403932,324,57.285
C,6,2347923,sinestep1.wav,None,1000,27,2405932,330,59.285
C,6,2347923,silence.wav,None,1000,27,2407932,333,61.285
C,6,2347923,vowelstep5.wav,None,1000,27,2409931,343,63.285
C,6,2347923,vowelstep3.wav,None,1000,27,2411931,341,65.285
C,6,2347923,vowelstep3.wav,None,1000,27,2413931,342,67.285
C,6,2347923,vowelstep7.wav,None,1000,27,2415931,342,69.285
C,6,2347923,silence.wav,None,1000,27,2417931,353,71.285
C,6,2347923,vowelstep3.wav,None,1000,27,2419931,333,73.285
C,6,2347923,silence.wav,None,1000,27,2421932,331,75.285
C,6,2347923,sinestep5.wav,None,1000,27,2423932,332,77.285
C,6,2347923,vowelstep7.wav,None,1000,27,2425932,342,79.285
C,6,2347923,vowelstep1_catch.wav,2,75,27,2427932,341,81.285
C,6,2347923,vowelstep3.wav,None,1000,27,2429932,1263,83.285
C,6,2347923,sinestep7.wav,None,1000,27,2431932,324,85.285
C,6,2347923,vowelstep3.wav,None,1000,27,2433932,322,87.285
C,6,2347923,sinestep1.wav,None,1000,27,2435931,333,89.285
C,6,2347923,sinestep7.wav,None,1000,27,2437931,326,91.285
C,6,2347923,sinestep7.wav,None,1000,27,2439932,343,93.285
C,6,2347923,sinestep3.wav,None,1000,27,2441932,337,95.285
C,6,2347923,vowelstep3_catch.wav,2,218,27,2443932,340,97.285
C,6,2347923,sinestep5.wav,None,1000,27,2445932,1104,99.285
C,6,2347923,sinestep5.wav,None,1000,27,2447932,330,101.285
C,6,2347923,vowelstep3.wav,None,1000,27,2449932,331,103.285
C,6,2347923,vowelstep5.wav,None,1000,27,2451932,331,105.285
C,6,2347923,sinestep1.wav,None,1000,27,2453932,338,107.285
C,6,2347923,sinestep3.wav,None,1000,27,2455932,340,109.285
C,6,2347923,vowelstep5.wav,None,1000,27,2457933,341,111.285
C,6,2347923,vowelstep7.wav,None,1000,27,2459932,345,113.285
C,6,2347923,vowelstep1.wav,None,1000,27,2461932,330,115.285
C,6,2347923,sinestep7.wav,None,1000,27,2463932,330,117.285
C,6,2347923,sinestep3.wav,None,1000,27,2465932,330,119.285
C,6,2347923,vowelstep1.wav,None,1000,27,2467932,337,121.285
C,6,2347923,vowelstep1.wav,None,1000,27,2469932,339,123.285
C,6,2347923,sinestep3.wav,None,1000,27,2471932,339,125.285
C,6,2347923,silence.wav,None,1000,27,2473933,349,127.285
C,6,2347923,silence.wav,None,1000,27,2475933,330,129.285
C,6,2347923,vowelstep5_catch.wav,2,118,27,2477933,328,131.285
C,6,2347923,vowelstep5.wav,None,1000,27,2479933,1210,133.285
C,6,2347923,silence.wav,None,1000,27,2481933,340,135.285
C,6,2347923,sinestep1.wav,None,1000,27,2483932,339,137.285
C,6,2347923,vowelstep7.wav,None,1000,27,2485932,336,139.285
C,6,2347923,sinestep7.wav,None,1000,27,2487932,340,141.285
C,6,2347923,silence.wav,None,1000,27,2489932,329,143.285
C,6,2347923,silence.wav,None,1000,27,2491933,326,145.285
C,6,2347923,sinestep7.wav,None,1000,27,2493933,328,147.285
C,6,2347923,vowelstep1.wav,None,1000,27,2495933,327,149.285
C,6,2347923,vowelstep5.wav,None,1000,27,2497933,338,151.285
C,6,2347923,vowelstep5.wav,None,1000,27,2499933,338,153.285
C,6,2347923,vowelstep7.wav,None,1000,27,2501933,336,155.285
C,6,2347923,sinestep7.wav,None,1000,27,2503933,318,157.285
C,6,2347923,vowelstep1.wav,None,1000,27,2505933,328,159.285
C,6,2347923,vowelstep3.wav,None,1000,27,2507932,326,161.285
C,6,2347923,sinestep5.wav,None,1000,27,2509933,339,163.285
C,6,2347923,sinestep7.wav,None,1000,27,2511933,336,165.285
C,6,2347923,sinestep1.wav,None,1000,27,2513933,339,167.285
C,6,2347923,sinestep7.wav,None,1000,27,2515933,337,169.285
C,6,2347923,sinestep3.wav,None,1000,27,2517933,314,171.285
C,6,2347923,silence.wav,None,1000,27,2519933,327,173.285
C,6,2347923,vowelstep7.wav,None,1000,27,2521933,326,175.285
C,6,2347923,sinestep7.wav,None,1000,27,2523933,326,177.285
C,6,2347923,sinestep5.wav,None,1000,27,2525934,334,179.285
C,6,2347923,vowelstep7.wav,None,1000,27,2527934,335,181.285
C,6,2347923,vowelstep5.wav,None,1000,27,2529934,336,183.285
C,6,2347923,vowelstep3.wav,None,1000,27,2531933,346,185.285
C,6,2347923,vowelstep7_catch.wav,2,132,27,2533933,322,187.285
C,6,2347923,vowelstep3.wav,None,1000,27,2535933,1193,189.285
C,6,2347923,vowelstep5.wav,None,1000,27,2537933,327,191.285
C,6,2347923,vowelstep7.wav,None,1000,27,2539933,336,193.285
C,6,2347923,vowelstep7_catch.wav,2,130,27,2541933,332,195.285
C,6,2347923,vowelstep5_catch.wav,2,195,27,2543934,1205,197.285
C,6,2347923,sinestep5.wav,None,1000,27,2545934,1117,199.285
C,6,2347923,sinestep3.wav,None,1000,27,2547934,325,201.285
C,6,2347923,vowelstep3_catch.wav,2,121,27,2549934,321,203.285
C,6,2347923,vowelstep1_catch.wav,2,70,27,2551934,1202,205.285
C,6,2347923,vowelstep5.wav,None,1000,27,2553934,1260,207.285
C,6,2347923,vowelstep1.wav,None,1000,27,2555934,335,209.285
C,6,2347923,sinestep1_catch.wav,2,106,27,2557933,333,211.285
C,6,2347923,sinestep3_catch.wav,2,26,27,2559933,1238,213.285
C,6,2347923,sinestep1.wav,None,1000,27,2561934,1299,215.285
C,6,2347923,vowelstep3.wav,None,1000,27,2563934,324,217.285
C,6,2347923,sinestep3.wav,None,1000,27,2565934,321,219.285
C,6,2347923,vowelstep5.wav,None,1000,27,2567934,333,221.285
C,6,2347923,sinestep7.wav,None,1000,27,2569934,332,223.285
C,6,2347923,sinestep1.wav,None,1000,27,2571934,334,225.285
C,6,2347923,sinestep5_catch.wav,2,9,27,2573934,310,227.285
C,6,2347923,vowelstep7.wav,None,1000,27,2575934,1311,229.285
C,6,2347923,vowelstep3.wav,None,1000,27,2577934,322,231.285
C,6,2347923,silence.wav,None,1000,27,2579935,321,233.285
C,6,2347923,vowelstep1.wav,None,1000,27,2581934,328,235.285
C,6,2347923,sinestep5.wav,None,1000,27,2583934,323,237.285
C,6,2347923,sinestep1.wav,None,1000,27,2585934,328,239.285
C,6,2347923,vowelstep7.wav,None,1000,27,2587934,325,241.285
C,6,2347923,sinestep3.wav,None,1000,27,2589934,318,243.285
C,6,2347923,sinestep3.wav,None,1000,27,2591934,317,245.285
C,6,2347923,sinestep5.wav,None,1000,27,2593934,317,247.285
C,6,2347923,vowelstep3.wav,None,1000,27,2595935,319,249.285
C,6,2347923,sinestep3.wav,None,1000,27,2597935,324,251.285
C,6,2347923,silence.wav,None,1000,27,2599935,327,253.285
C,6,2347923,sinestep3.wav,None,1000,27,2601935,336,255.285
C,6,2347923,vowelstep1.wav,None,1000,27,2603935,310,257.285
C,6,2347923,silence.wav,None,1000,27,2605934,320,259.285
C,6,2347923,vowelstep1.wav,None,1000,27,2607934,322,261.285
C,6,2347923,silence.wav,None,1000,27,2609934,329,263.285
C,6,2347923,sinestep7.wav,None,1000,27,2611934,331,265.285
C,6,2347923,sinestep3.wav,None,1000,27,2613935,328,267.285
C,6,2347923,vowelstep1.wav,None,1000,27,2615935,330,269.285
C,6,2347923,sinestep7.wav,None,1000,27,2617935,315,271.285
C,6,2347923,sinestep7_catch.wav,2,217,27,2619935,319,273.285
C,6,2347923,vowelstep5.wav,None,1000,27,2621935,1100,275.285
C,6,2347923,silence.wav,None,1000,27,2623935,320,277.285
C,6,2347923,silence.wav,None,1000,27,2625935,328,279.285
C,6,2347923,sinestep3.wav,None,1000,27,2627935,330,281.285
C,6,2347923,vowelstep7.wav,None,1000,27,2629934,326,283.285
C,6,2347923,sinestep5.wav,None,1000,27,2631935,339,285.285
C,6,2347923,sinestep5.wav,None,1000,27,2633935,338,287.285
C,6,2347923,vowelstep3.wav,None,1000,27,2635935,339,289.285
C,6,2347923,sinestep3.wav,None,1000,27,2637935,318,291.285
C,6,2347923,silence.wav,None,1000,27,2639935,328,293.285
C,6,2347923,silence.wav,None,1000,27,2641935,330,295.285
C,6,2347923,vowelstep7.wav,None,1000,27,2643935,328,297.285
C,6,2347923,silence.wav,None,1000,27,2645935,335,299.285
C,6,2347923,vowelstep5.wav,None,1000,27,2647935,319,301.285
C,6,2347923,sinestep5.wav,None,1000,27,2649936,338,303.285
C,6,2347923,silence.wav,None,1000,27,2651936,325,305.285
C,6,2347923,silence.wav,None,1000,27,2653935,328,307.285
C,6,2347923,silence.wav,None,1000,27,2655935,329,309.285
C,6,2347923,sinestep7_catch.wav,2,259,27,2657935,329,311.285
C,6,2347923,sinestep7.wav,None,1000,27,2659935,1079,313.285
C,6,2347923,sinestep5_catch.wav,2,87,27,2661935,335,315.285
C,6,2347923,sinestep5.wav,2,516,27,2663935,1247,317.285
C,6,2347923,sinestep3_catch.wav,2,47,27,2665936,802,319.285
F,7,2723250,sinestep1.wav,None,1000,27,2723253,0,1.285
F,7,2723250,vowelstep5.wav,None,1000,27,2725253,351,3.285
F,7,2723250,vowelstep3.wav,None,1000,27,2727253,323,5.285
F,7,2723250,sinestep5.wav,None,1000,27,2729253,332,7.285
F,7,2723250,vowelstep7.wav,None,1000,27,2731270,332,9.285
F,7,2723250,silence.wav,None,1000,27,2733270,309,11.285
F,7,2723250,vowelstep5.wav,None,1000,27,2735269,323,13.285
F,7,2723250,sinestep3.wav,None,1000,27,2737270,316,15.285
F,7,2723250,sinestep3.wav,None,1000,27,2739254,320,17.285
F,7,2723250,silence.wav,None,1000,27,2741254,322,19.285
F,7,2723250,vowelstep7.wav,None,1000,27,2743253,330,21.285
F,7,2723250,vowelstep7.wav,None,1000,27,2745253,332,23.285
F,7,2723250,vowelstep1_catch.wav,2,313,27,2747253,332,25.285
F,7,2723250,vowelstep3_catch.wav,2,262,27,2749270,1028,27.285
F,7,2723250,vowelstep1.wav,None,1000,27,2751270,1056,29.285
F,7,2723250,sinestep5.wav,None,1000,27,2753254,321,31.285
F,7,2723250,sinestep5.wav,None,1000,27,2755254,346,33.285
F,7,2723250,vowelstep7.wav,None,1000,27,2757254,331,35.285
F,7,2723250,sinestep3.wav,None,1000,27,2759254,330,37.285
F,7,2723250,sinestep7.wav,None,1000,27,2761254,332,39.285
F,7,2723250,vowelstep5_catch.wav,2,242,27,2763254,340,41.285
F,7,2723250,sinestep1.wav,None,1000,27,2765254,1014,43.285
F,7,2723250,vowelstep7_catch.wav,2,78,27,2767270,339,45.285
F,7,2723250,vowelstep3.wav,None,1000,27,2769270,1241,47.285
F,7,2723250,sinestep1.wav,None,1000,27,2771254,330,49.285
F,7,2723250,sinestep7.wav,None,1000,27,2773254,320,51.285
F,7,2723250,silence.wav,None,1000,27,2775254,323,53.285
F,7,2723250,sinestep7.wav,None,1000,27,2777254,336,55.285
F,7,2723250,vowelstep1.wav,None,1000,27,2779254,337,57.285
F,7,2723250,vowelstep3.wav,None,1000,27,2781254,346,59.285
F,7,2723250,vowelstep7_catch.wav,2,262,27,2783271,342,61.285
F,7,2723250,sinestep5.wav,None,1000,27,2785270,1064,63.285
F,7,2723250,sinestep3.wav,None,1000,27,2787254,324,65.285
F,7,2723250,vowelstep3.wav,None,1000,27,2789255,337,67.285
F,7,2723250,silence.wav,None,1000,27,2791254,337,69.285
F,7,2723250,vowelstep1.wav,None,1000,27,2793254,335,71.285
F,7,2723250,vowelstep1.wav,None,1000,27,2795254,336,73.285
F,7,2723250,vowelstep5_catch.wav,2,114,27,2797254,335,75.285
F,7,2723250,silence.wav,None,1000,27,2799254,1232,77.285
F,7,2723250,vowelstep3.wav,None,1000,27,2801254,349,79.285
F,7,2723250,vowelstep5.wav,None,1000,27,2803254,326,81.285
F,7,2723250,vowelstep3_catch.wav,2,145,27,2805254,335,83.285
F,7,2723250,vowelstep3.wav,None,1000,27,2807255,1191,85.285
F,7,2723250,sinestep7.wav,None,1000,27,2809255,335,87.285
F,7,2723250,vowelstep1.wav,None,1000,27,2811255,346,89.285
F,7,2723250,sinestep1.wav,None,1000,27,2813255,346,91.285
F,7,2723250,vowelstep1_catch.wav,2,85,27,2815254,346,93.285
F,7,2723250,vowelstep5.wav,None,1000,27,2817254,1271,95.285
F,7,2723250,sinestep7.wav,None,1000,27,2819254,338,97.285
F,7,2723250,vowelstep7.wav,None,1000,27,2821254,328,99.285
F,7,2723250,vowelstep3.wav,None,1000,27,2823255,331,101.285
F,7,2723250,sinestep3.wav,None,1000,27,2825255,342,103.285
F,7,2723250,silence.wav,None,1000,27,2827255,343,105.285
F,7,2723250,sinestep1.wav,None,1000,27,2829255,345,107.285
F,7,2723250,sinestep1.wav,None,1000,27,2831255,354,109.285
F,7,2723250,silence.wav,None,1000,27,2833255,353,111.285
F,7,2723250,sinestep7.wav,None,1000,27,2835255,329,113.285
F,7,2723250,vowelstep3.wav,None,1000,27,2837255,332,115.285
F,7,2723250,sinestep3.wav,None,1000,27,2839255,343,117.285
F,7,2723250,vowelstep3.wav,None,1000,27,2841255,344,119.285
F,7,2723250,vowelstep7.wav,None,1000,27,2843255,345,121.285
F,7,2723250,vowelstep7.wav,None,1000,27,2845255,351,123.285
F,7,2723250,vowelstep5.wav,None,1000,27,2847255,324,125.285
F,7,2723250,sinestep1.wav,None,1000,27,2849255,330,127.285
F,7,2723250,silence.wav,None,1000,27,2851255,334,129.285
F,7,2723250,sinestep1.wav,None,1000,27,2853255,345,131.285
F,7,2723250,sinestep3.wav,None,1000,27,2855255,343,133.285
F,7,2723250,sinestep1_catch.wav,2,85,27,2857255,344,135.285
F,7,2723250,sinestep3.wav,None,1000,27,2859256,1256,137.285
F,7,2723250,sinestep3.wav,None,1000,27,2861256,352,139.285
F,7,2723250,silence.wav,None,1000,27,2863256,333,141.285
F,7,2723250,silence.wav,None,1000,27,2865255,332,143.285
F,7,2723250,sinestep7.wav,None,1000,27,2867255,333,145.285
F,7,2723250,sinestep5.wav,None,1000,27,2869255,342,147.285
F,7,2723250,vowelstep1.wav,None,1000,27,2871255,342,149.285
F,7,2723250,sinestep7.wav,None,1000,27,2873255,343,151.285
F,7,2723250,silence.wav,None,1000,27,2875255,322,153.285
F,7,2723250,sinestep3_catch.wav,2,262,27,2877256,330,155.285
F,7,2723250,vowelstep5.wav,None,1000,27,2879256,1069,157.285
F,7,2723250,sinestep3.wav,None,1000,27,2881256,331,159.285
F,7,2723250,vowelstep5.wav,None,1000,27,2883256,341,161.285
F,7,2723250,sinestep3.wav,None,1000,27,2885256,290,163.285
F,7,2723250,vowelstep3.wav,None,1000,27,2887256,341,165.285
F,7,2723250,vowelstep1.wav,None,1000,27,2889255,332,167.285
F,7,2723250,sinestep5.wav,None,1000,27,2891255,333,169.285
F,7,2723250,vowelstep5.wav,None,1000,27,2893256,330,171.285
F,7,2723250,vowelstep1.wav,None,1000,27,2895256,332,173.285
F,7,2723250,vowelstep1.wav,None,1000,27,2897256,336,175.285
F,7,2723250,sinestep7.wav,None,1000,27,2899256,339,177.285
F,7,2723250,vowelstep1.wav,None,1000,27,2901256,341,179.285
F,7,2723250,sinestep5.wav,None,1000,27,2903256,349,181.285
F,7,2723250,vowelstep7.wav,None,1000,27,2905256,331,183.285
F,7,2723250,sinestep1.wav,None,1000,27,2907256,331,185.285
F,7,2723250,vowelstep7.wav,None,1000,27,2909256,326,187.285
F,7,2723250,sinestep5.wav,None,1000,27,2911257,340,189.285
F,7,2723250,vowelstep5.wav,None,1000,27,2913256,340,191.285
F,7,2723250,silence.wav,None,1000,27,2915256,339,193.285
F,7,2723250,sinestep7.wav,None,1000,27,2917256,350,195.285
F,7,2723250,vowelstep5.wav,None,1000,27,2919256,330,197.285
F,7,2723250,vowelstep7.wav,None,1000,27,2921256,330,199.285
F,7,2723250,silence.wav,None,1000,27,2923256,330,201.285
F,7,2723250,vowelstep1.wav,None,1000,27,2925256,337,203.285
F,7,2723250,vowelstep7.wav,None,1000,27,2927256,340,205.285
F,7,2723250,vowelstep7.wav,None,1000,27,2929257,339,207.285
F,7,2723250,vowelstep3.wav,None,1000,27,2931257,336,209.285
F,7,2723250,vowelstep3.wav,None,1000,27,2933257,328,211.285
F,7,2723250,silence.wav,None,1000,27,2935257,327,213.285
F,7,2723250,sinestep7.wav,None,1000,27,2937256,330,215.285
F,7,2723250,sinestep1.wav,None,1000,27,2939256,328,217.285
F,7,2723250,silence.wav,None,1000,27,2941256,335,219.285
F,7,2723250,vowelstep1.wav,None,1000,27,2943256,338,221.285
F,7,2723250,sinestep5_catch.wav,2,126,27,2945256,349,223.285
F,7,2723250,sinestep1.wav,None,1000,27,2947257,1188,225.285
F,7,2723250,silence.wav,None,1000,27,2949257,328,227.285
F,7,2723250,sinestep7.wav,None,1000,27,2951257,328,229.285
F,7,2723250,sinestep7.wav,None,1000,27,2953257,338,231.285
F,7,2723250,silence.wav,None,1000,27,2955257,338,233.285
F,7,2723250,vowelstep5.wav,None,1000,27,2957257,338,235.285
F,7,2723250,sinestep7.wav,None,1000,27,2959257,339,237.285
F,7,2723250,sinestep5.wav,None,1000,27,2961256,348,239.285
F,7,2723250,sinestep5.wav,None,1000,27,2963257,328,241.285
F,7,2723250,silence.wav,None,1000,27,2965257,327,243.285
F,7,2723250,vowelstep3.wav,None,1000,27,2967257,336,245.285
F,7,2723250,vowelstep3.wav,None,1000,27,2969257,337,247.285
F,7,2723250,silence.wav,None,1000,27,2971257,337,249.285
F,7,2723250,sinestep1.wav,None,1000,27,2973257,342,251.285
F,7,2723250,sinestep1.wav,None,1000,27,2975257,317,253.285
F,7,2723250,vowelstep5.wav,None,1000,27,2977257,322,255.285
F,7,2723250,silence.wav,None,1000,27,2979257,325,257.285
F,7,2723250,sinestep5.wav,None,1000,27,2981258,337,259.285
F,7,2723250,sinestep5.wav,None,1000,27,2983258,334,261.285
F,7,2723250,sinestep5.wav,None,1000,27,2985258,336,263.285
F,7,2723250,sinestep7.wav,None,1000,27,2987257,336,265.285
F,7,2723250,sinestep7_catch.wav,2,120,27,2989257,313,267.285
F,7,2723250,sinestep7_catch.wav,2,45,27,2991257,1205,269.285
F,7,2723250,sinestep1.wav,None,1000,27,2993257,1275,271.285
F,7,2723250,vowelstep7.wav,None,1000,27,2995257,326,273.285
F,7,2723250,sinestep3.wav,None,1000,27,2997257,335,275.285
F,7,2723250,sinestep3.wav,None,1000,27,2999258,335,277.285
F,7,2723250,silence.wav,None,1000,27,3001258,335,279.285
F,7,2723250,sinestep5_catch.wav,2,135,27,3003258,315,281.285
F,7,2723250,sinestep5.wav,None,1000,27,3005258,1189,283.285
F,7,2723250,silence.wav,None,1000,27,3007258,326,285.285
F,7,2723250,vowelstep5.wav,None,1000,27,3009258,324,287.285
F,7,2723250,silence.wav,None,1000,27,3011257,335,289.285
F,7,2723250,sinestep1.wav,None,1000,27,3013257,335,291.285
F,7,2723250,sinestep3.wav,None,1000,27,3015257,334,293.285
F,7,2723250,vowelstep3.wav,None,1000,27,3017258,312,295.285
F,7,2723250,silence.wav,None,1000,27,3019258,321,297.285
F,7,2723250,sinestep5.wav,None,1000,27,3021258,319,299.285
F,7,2723250,vowelstep5.wav,None,1000,27,3023258,324,301.285
F,7,2723250,vowelstep5.wav,None,1000,27,3025258,325,303.285
F,7,2723250,vowelstep1.wav,None,1000,27,3027258,330,305.285
F,7,2723250,sinestep3.wav,None,1000,27,3029258,332,307.285
F,7,2723250,silence.wav,None,1000,27,3031258,333,309.285
F,7,2723250,sinestep3_catch.wav,2,125,27,3033259,321,311.285
F,7,2723250,vowelstep1.wav,None,1000,27,3035258,1195,313.285
F,7,2723250,vowelstep7.wav,None,1000,27,3037258,350,315.285
F,7,2723250,vowelstep7.wav,None,1000,27,3039258,330,317.285
F,7,2723250,vowelstep1.wav,None,1000,27,3041258,330,319.285
D,8,3100784,sinestep5.wav,None,1000,27,3100792,0,1.285
D,8,3100784,vowelstep1_catch.wav,2,159,27,3102792,330,3.285
D,8,3100784,sinestep7.wav,None,1000,27,3104793,1180,5.285
D,8,3100784,vowelstep3.wav,None,1000,27,3106793,320,7.285
D,8,3100784,vowelstep3_catch.wav,2,130,27,3108793,320,9.285
D,8,3100784,vowelstep5_catch.wav,2,8,27,3110793,1185,11.285
D,8,3100784,sinestep7.wav,None,1000,27,3112793,1321,13.285
D,8,3100784,silence.wav,None,1000,27,3114793,331,15.285
D,8,3100784,vowelstep7_catch.wav,2,38,27,3116792,331,17.285
D,8,3100784,vowelstep7.wav,None,1000,27,3118792,1292,19.285
D,8,3100784,vowelstep3.wav,None,1000,27,3120793,319,21.285
D,8,3100784,vowelstep7_catch.wav,2,54,27,3122793,319,23.285
D,8,3100784,vowelstep5.wav,None,1000,27,3124793,1292,25.285
D,8,3100784,sinestep7.wav,None,1000,27,3126793,349,27.285
D,8,3100784,silence.wav,None,1000,27,3128793,329,29.285
D,8,3100784,vowelstep1.wav,None,1000,27,3130793,330,31.285
D,8,3100784,vowelstep1.wav,None,1000,27,3132793,329,33.285
D,8,3100784,vowelstep7.wav,None,1000,27,3134793,339,35.285
D,8,3100784,vowelstep3.wav,None,1000,27,3136793,338,37.285
D,8,3100784,sinestep3.wav,None,1000,27,3138794,338,39.285
D,8,3100784,sinestep1.wav,None,1000,27,3140793,316,41.285
D,8,3100784,vowelstep1.wav,None,1000,27,3142793,327,43.285
D,8,3100784,vowelstep1.wav,None,1000,27,3144793,327,45.285
D,8,3100784,sinestep7.wav,None,1000,27,3146793,327,47.285
D,8,3100784,sinestep3.wav,None,1000,27,3148793,336,49.285
D,8,3100784,vowelstep5_catch.wav,2,74,27,3150793,331,51.285
D,8,3100784,sinestep7.wav,None,1000,27,3152793,1259,53.285
D,8,3100784,vowelstep5.wav,None,1000,27,3154793,346,55.285
D,8,3100784,sinestep3.wav,None,1000,27,3156794,327,57.285
D,8,3100784,sinestep7.wav,None,1000,27,3158794,322,59.285
D,8,3100784,vowelstep3.wav,None,1000,27,3160794,325,61.285
D,8,3100784,vowelstep3.wav,None,1000,27,3162794,334,63.285
D,8,3100784,vowelstep3_catch.wav,2,112,27,3164794,339,65.285
D,8,3100784,silence.wav,None,1000,27,3166793,1227,67.285
D,8,3100784,vowelstep7.wav,None,1000,27,3168793,317,69.285
D,8,3100784,silence.wav,None,1000,27,3170793,316,71.285
D,8,3100784,sinestep1.wav,None,1000,27,3172794,330,73.285
D,8,3100784,vowelstep5.wav,None,1000,27,3174794,333,75.285
D,8,3100784,vowelstep1.wav,None,1000,27,3176794,339,77.285
D,8,3100784,sinestep7.wav,None,1000,27,3178794,333,79.285
D,8,3100784,vowelstep1.wav,None,1000,27,3180794,340,81.285
D,8,3100784,sinestep7.wav,None,1000,27,3182794,318,83.285
D,8,3100784,vowelstep7.wav,None,1000,27,3184794,328,85.285
D,8,3100784,vowelstep5.wav,None,1000,27,3186794,328,87.285
D,8,3100784,vowelstep1.wav,None,1000,27,3188794,327,89.285
D,8,3100784,sinestep5.wav,None,1000,27,3190794,337,91.285
D,8,3100784,sinestep5.wav,None,1000,27,3192794,336,93.285
D,8,3100784,vowelstep3.wav,None,1000,27,3194794,337,95.285
D,8,3100784,silence.wav,None,1000,27,3196794,347,97.285
D,8,3100784,sinestep1.wav,None,1000,27,3198794,322,99.285
D,8,3100784,sinestep1.wav,None,1000,27,3200794,324,101.285
D,8,3100784,sinestep3.wav,None,1000,27,3202794,323,103.285
D,8,3100784,vowelstep1.wav,None,1000,27,3204794,333,105.285
D,8,3100784,sinestep7.wav,None,1000,27,3206794,334,107.285
D,8,3100784,vowelstep3.wav,None,1000,27,3208795,329,109.285
D,8,3100784,silence.wav,None,1000,27,3210795,343,111.285
D,8,3100784,vowelstep5.wav,None,1000,27,3212795,322,113.285
D,8,3100784,vowelstep1.wav,None,1000,27,3214794,325,115.285
D,8,3100784,vowelstep1_catch.wav,2,160,27,3216794,326,117.285
D,8,3100784,vowelstep7.wav,None,1000,27,3218794,1173,119.285
D,8,3100784,sinestep5.wav,None,1000,27,3220794,336,121.285
D,8,3100784,vowelstep7.wav,None,1000,27,3222794,332,123.285
D,8,3100784,sinestep1.wav,None,1000,27,3224794,335,125.285
D,8,3100784,sinestep1.wav,None,1000,27,3226795,324,127.285
D,8,3100784,vowelstep3.wav,None,1000,27,3228795,325,129.285
D,8,3100784,sinestep1.wav,None,1000,27,3230795,319,131.285
D,8,3100784,silence.wav,None,1000,27,3232795,322,133.285
D,8,3100784,sinestep3.wav,None,1000,27,3234795,331,135.285
D,8,3100784,silence.wav,None,1000,27,3236795,332,137.285
D,8,3100784,vowelstep3.wav,None,1000,27,3238794,333,139.285
D,8,3100784,vowelstep5.wav,None,1000,27,3240794,312,141.285
D,8,3100784,silence.wav,None,1000,27,3242795,323,143.285
D,8,3100784,sinestep5.wav,None,1000,27,3244795,321,145.285
D,8,3100784,sinestep5.wav,None,1000,27,3246795,328,147.285
D,8,3100784,sinestep1.wav,None,1000,27,3248795,331,149.285
D,8,3100784,vowelstep5.wav,None,1000,27,3250795,333,151.285
D,8,3100784,vowelstep5.wav,None,1000,27,3252795,333,153.285
D,8,3100784,sinestep1_catch.wav,2,59,27,3254795,320,155.285
D,8,3100784,sinestep5.wav,None,1000,27,3256795,1264,157.285
D,8,3100784,vowelstep3.wav,None,1000,27,3258795,322,159.285
D,8,3100784,vowelstep7.wav,None,1000,27,3260796,323,161.285
D,8,3100784,vowelstep3.wav,None,1000,27,3262795,333,163.285
D,8,3100784,sinestep3.wav,None,1000,27,3264795,331,165.285
D,8,3100784,sinestep1.wav,None,1000,27,3266795,342,167.285
D,8,3100784,silence.wav,None,1000,27,3268795,310,169.285
D,8,3100784,sinestep1.wav,None,1000,27,3270795,323,171.285
D,8,3100784,vowelstep1.wav,None,1000,27,3272795,324,173.285
D,8,3100784,vowelstep3.wav,None,1000,27,3274795,324,175.285
D,8,3100784,silence.wav,None,1000,27,3276795,333,177.285
D,8,3100784,sinestep7.wav,None,1000,27,3278796,327,179.285
D,8,3100784,silence.wav,None,1000,27,3280796,328,181.285
D,8,3100784,vowelstep7.wav,None,1000,27,3282796,339,183.285
D,8,3100784,sinestep3.wav,None,1000,27,3284796,320,185.285
D,8,3100784,vowelstep1.wav,None,1000,27,3286795,321,187.285
D,8,3100784,sinestep7.wav,None,1000,27,3288795,316,189.285
D,8,3100784,silence.wav,None,1000,27,3290795,328,191.285
D,8,3100784,sinestep1.wav,None,1000,27,3292795,331,193.285
D,8,3100784,sinestep3.wav,None,1000,27,3294795,329,195.285
D,8,3100784,sinestep5.wav,None,1000,27,3296796,341,197.285
D,8,3100784,vowelstep3.wav,None,1000,27,3298796,321,199.285
D,8,3100784,sinestep5.wav,None,1000,27,3300796,321,201.285
D,8,3100784,sinestep5.wav,None,1000,27,3302796,317,203.285
D,8,3100784,sinestep3.wav,None,1000,27,3304796,331,205.285
D,8,3100784,sinestep3.wav,None,1000,27,3306796,326,207.285
D,8,3100784,sinestep5.wav,None,1000,27,3308796,330,209.285
D,8,3100784,sinestep3_catch.wav,2,137,27,3310795,341,211.285
D,8,3100784,vowelstep7.wav,None,1000,27,3312796,1184,213.285
D,8,3100784,sinestep1.wav,None,1000,27,3314796,319,215.285
D,8,3100784,sinestep7.wav,None,1000,27,3316796,316,217.285
D,8,3100784,vowelstep1.wav,None,1000,27,3318796,328,219.285
D,8,3100784,sinestep5.wav,None,1000,27,3320796,328,221.285
D,8,3100784,silence.wav,None,1000,27,3322796,329,223.285
D,8,3100784,sinestep5_catch.wav,2,174,27,3324796,339,225.285
D,8,3100784,sinestep5.wav,None,1000,27,3326796,1145,227.285
D,8,3100784,silence.wav,None,1000,27,3328796,320,229.285
D,8,3100784,vowelstep7.wav,None,1000,27,3330797,320,231.285
D,8,3100784,sinestep3.wav,None,1000,27,3332797,329,233.285
D,8,3100784,vowelstep5.wav,None,1000,27,3334797,326,235.285
D,8,3100784,vowelstep7.wav,None,1000,27,3336796,328,237.285
D,8,3100784,vowelstep5.wav,None,1000,27,3338796,338,239.285
D,8,3100784,silence.wav,None,1000,27,3340796,318,241.285
D,8,3100784,silence.wav,None,1000,27,3342796,320,243.285
D,8,3100784,silence.wav,None,1000,27,3344796,319,245.285
D,8,3100784,sinestep7.wav,None,1000,27,3346796,330,247.285
D,8,3100784,sinestep5.wav,None,1000,27,3348797,329,249.285
D,8,3100784,sinestep7_catch.wav,2,82,27,3350797,325,251.285
D,8,3100784,vowelstep1.wav,None,1000,27,3352797,1254,253.285
D,8,3100784,vowelstep1.wav,None,1000,27,3354797,316,255.285
D,8,3100784,vowelstep3.wav,None,1000,27,3356797,317,257.285
D,8,3100784,silence.wav,None,1000,27,3358797,317,259.285
D,8,3100784,sinestep5.wav,None,1000,27,3360796,318,261.285
D,8,3100784,vowelstep7.wav,None,1000,27,3362796,326,263.285
D,8,3100784,vowelstep3.wav,None,1000,27,3364796,328,265.285
D,8,3100784,vowelstep7.wav,None,1000,27,3366797,331,267.285
D,8,3100784,vowelstep5.wav,None,1000,27,3368797,335,269.285
D,8,3100784,sinestep1.wav,None,1000,27,3370797,337,271.285
D,8,3100784,sinestep7.wav,None,1000,27,3372797,335,273.285
D,8,3100784,sinestep3.wav,None,1000,27,3374797,315,275.285
D,8,3100784,silence.wav,None,1000,27,3376797,327,277.285
D,8,3100784,sinestep7.wav,None,1000,27,3378797,326,279.285
D,8,3100784,vowelstep5.wav,None,1000,27,3380797,326,281.285
D,8,3100784,sinestep1.wav,None,1000,27,3382798,303,283.285
D,8,3100784,vowelstep1.wav,None,1000,27,3384797,316,285.285
D,8,3100784,sinestep1.wav,None,1000,27,3386797,334,287.285
D,8,3100784,vowelstep5.wav,None,1000,27,3388797,312,289.285
D,8,3100784,silence.wav,None,1000,27,3390797,328,291.285
D,8,3100784,sinestep3.wav,None,1000,27,3392797,324,293.285
D,8,3100784,vowelstep5.wav,None,1000,27,3394797,325,295.285
D,8,3100784,silence.wav,None,1000,27,3396797,336,297.285
D,8,3100784,sinestep3.wav,None,1000,27,3398797,332,299.285
D,8,3100784,vowelstep7.wav,None,1000,27,3400798,335,301.285
D,8,3100784,sinestep7_catch.wav,2,222,27,3402798,314,303.285
D,8,3100784,sinestep5_catch.wav,2,123,27,3404798,1101,305.285
D,8,3100784,sinestep3.wav,None,1000,27,3406798,1201,307.285
D,8,3100784,vowelstep5.wav,None,1000,27,3408797,323,309.285
D,8,3100784,silence.wav,None,1000,27,3410797,335,311.285
D,8,3100784,sinestep3_catch.wav,2,62,27,3412797,334,313.285
D,8,3100784,silence.wav,None,1000,27,3414797,1268,315.285
D,8,3100784,vowelstep7.wav,None,1000,27,3416797,314,317.285
D,8,3100784,silence.wav,None,1000,27,3418798,324,319.285
B,9,3477928,vowelstep5.wav,None,1000,27,3477932,0,1.285
B,9,3477928,silence.wav,None,1000,27,3479932,350,3.285
B,9,3477928,sinestep7.wav,None,1000,27,3481932,334,5.285
B,9,3477928,vowelstep1_catch.wav,2,163,27,3483932,333,7.285
B,9,3477928,vowelstep7.wav,None,1000,27,3485932,1171,9.285
B,9,3477928,vowelstep3.wav,None,1000,27,3487933,339,11.285
B,9,3477928,vowelstep7.wav,None,1000,27,3489932,343,13.285
B,9,3477928,vowelstep5.wav,None,1000,27,3491932,343,15.285
B,9,3477928,vowelstep7.wav,None,1000,27,3493932,354,17.285
B,9,3477928,vowelstep3.wav,None,1000,27,3495932,322,19.285
B,9,3477928,silence.wav,None,1000,27,3497932,333,21.285
B,9,3477928,silence.wav,None,1000,27,3499932,333,23.285
B,9,3477928,sinestep5.wav,None,1000,27,3501932,343,25.285
B,9,3477928,sinestep1.wav,None,1000,27,3503932,343,27.285
B,9,3477928,vowelstep7.wav,None,1000,27,3505933,343,29.285
B,9,3477928,sinestep5.wav,None,1000,27,3507933,352,31.285
B,9,3477928,vowelstep1.wav,None,1000,27,3509933,332,33.285
B,9,3477928,vowelstep7.wav,None,1000,27,3511933,328,35.285
B,9,3477928,vowelstep3.wav,None,1000,27,3513932,330,37.285
B,9,3477928,sinestep5.wav,None,1000,27,3515932,341,39.285
B,9,3477928,vowelstep1.wav,None,1000,27,3517932,343,41.285
B,9,3477928,sinestep3.wav,None,1000,27,3519932,341,43.285
B,9,3477928,vowelstep5.wav,None,1000,27,3521932,321,45.285
B,9,3477928,vowelstep7.wav,None,1000,27,3523933,324,47.285
B,9,3477928,vowelstep3.wav,None,1000,27,3525933,328,49.285
B,9,3477928,sinestep7.wav,None,1000,27,3527933,333,51.285
B,9,3477928,sinestep3.wav,None,1000,27,3529933,342,53.285
B,9,3477928,sinestep1.wav,None,1000,27,3531933,339,55.285
B,9,3477928,sinestep1.wav,None,1000,27,3533933,342,57.285
B,9,3477928,sinestep5.wav,None,1000,27,3535933,347,59.285
B,9,3477928,vowelstep5.wav,None,1000,27,3537932,330,61.285
B,9,3477928,vowelstep3_catch.wav,2,84,27,3539933,330,63.285
B,9,3477928,vowelstep7.wav,None,1000,27,3541933,1245,65.285
B,9,3477928,sinestep1.wav,None,1000,27,3543933,340,67.285
B,9,3477928,vowelstep5.wav,None,1000,27,3545933,341,69.285
B,9,3477928,vowelstep5_catch.wav,2,136,27,3547933,340,71.285
B,9,3477928,vowelstep7.wav,None,1000,27,3549933,1214,73.285
B,9,3477928,sinestep3.wav,None,1000,27,3551933,351,75.285
B,9,3477928,vowelstep7_catch.wav,2,74,27,3553933,328,77.285
B,9,3477928,sinestep5.wav,None,1000,27,3555933,1256,79.285
B,9,3477928,vowelstep5.wav,None,1000,27,3557934,339,81.285
B,9,3477928,silence.wav,None,1000,27,3559934,340,83.285
B,9,3477928,silence.wav,None,1000,27,3561933,340,85.285
B,9,3477928,vowelstep3.wav,None,1000,27,3563933,349,87.285
B,9,3477928,silence.wav,None,1000,27,3565933,321,89.285
B,9,3477928,sinestep1.wav,None,1000,27,3567933,329,91.285
B,9,3477928,sinestep1.wav,None,1000,27,3569933,330,93.285
B,9,3477928,sinestep5.wav,None,1000,27,3571933,327,95.285
B,9,3477928,vowelstep7.wav,None,1000,27,3573933,340,97.285
B,9,3477928,sinestep5.wav,None,1000,27,3575934,340,99.285
B,9,3477928,sinestep5.wav,None,1000,27,3577934,339,101.285
B,9,3477928,silence.wav,None,1000,27,3579934,349,103.285
B,9,3477928,vowelstep1.wav,None,1000,27,3581934,330,105.285
B,9,3477928,silence.wav,None,1000,27,3583934,328,107.285
B,9,3477928,sinestep1.wav,None,1000,27,3585933,329,109.285
B,9,3477928,vowelstep7.wav,None,1000,27,3587933,340,111.285
B,9,3477928,silence.wav,None,1000,27,3589933,339,113.285
B,9,3477928,sinestep1.wav,None,1000,27,3591933,348,115.285
B,9,3477928,vowelstep3.wav,None,1000,27,3593934,318,117.285
B,9,3477928,vowelstep5.wav,None,1000,27,3595934,328,119.285
B,9,3477928,silence.wav,None,1000,27,3597934,327,121.285
B,9,3477928,sinestep3.wav,None,1000,27,3599934,328,123.285
B,9,3477928,sinestep5.wav,None,1000,27,3601934,334,125.285
B,9,3477928,silence.wav,None,1000,27,3603934,337,127.285
B,9,3477928,vowelstep5.wav,None,1000,27,3605934,336,129.285
B,9,3477928,sinestep3.wav,None,1000,27,3607934,345,131.285
B,9,3477928,sinestep5.wav,None,1000,27,3609935,327,133.285
B,9,3477928,sinestep5.wav,None,1000,27,3611934,325,135.285
B,9,3477928,sinestep7.wav,None,1000,27,3613934,326,137.285
B,9,3477928,sinestep7.wav,None,1000,27,3615934,336,139.285
B,9,3477928,vowelstep5.wav,None,1000,27,3617934,333,141.285
B,9,3477928,sinestep1.wav,None,1000,27,3619934,346,143.285
B,9,3477928,vowelstep7.wav,None,1000,27,3621934,347,145.285
B,9,3477928,sinestep7.wav,None,1000,27,3623934,322,147.285
B,9,3477928,vowelstep5.wav,None,1000,27,3625934,325,149.285
B,9,3477928,vowelstep1.wav,None,1000,27,3627935,324,151.285
B,9,3477928,sinestep3.wav,None,1000,27,3629935,335,153.285
B,9,3477928,silence.wav,None,1000,27,3631935,335,155.285
B,9,3477928,silence.wav,None,1000,27,3633935,336,157.285
B,9,3477928,sinestep7_catch.wav,2,100,27,3635934,316,159.285
B,9,3477928,vowelstep5.wav,None,1000,27,3637934,1220,161.285
B,9,3477928,sinestep7.wav,None,1000,27,3639934,324,163.285
B,9,3477928,vowelstep5.wav,None,1000,27,3641934,324,165.285
B,9,3477928,vowelstep3.wav,None,1000,27,3643934,335,167.285
B,9,3477928,silence.wav,None,1000,27,3645935,333,169.285
B,9,3477928,sinestep3.wav,None,1000,27,3647935,331,171.285
B,9,3477928,sinestep7_catch.wav,2,108,27,3649935,329,173.285
B,9,3477928,sinestep3.wav,None,1000,27,3651935,1210,175.285
B,9,3477928,sinestep5_catch.wav,2,50,27,3653935,325,177.285
B,9,3477928,vowelstep5.wav,None,1000,27,3655935,1272,179.285
B,9,3477928,silence.wav,None,1000,27,3657935,334,181.285
B,9,3477928,sinestep7.wav,None,1000,27,3659934,335,183.285
B,9,3477928,silence.wav,None,1000,27,3661934,335,185.285
B,9,3477928,sinestep3.wav,None,1000,27,3663935,313,187.285
B,9,3477928,silence.wav,None,1000,27,3665935,314,189.285
B,9,3477928,vowelstep7.wav,None,1000,27,3667935,324,191.285
B,9,3477928,vowelstep3.wav,None,1000,27,3669935,325,193.285
B,9,3477928,vowelstep3.wav,None,1000,27,3671935,330,195.285
B,9,3477928,sinestep7.wav,None,1000,27,3673935,333,197.285
B,9,3477928,sinestep7.wav,None,1000,27,3675935,331,199.285
B,9,3477928,sinestep3.wav,None,1000,27,3677935,332,201.285
B,9,3477928,sinestep3_catch.wav,2,81,27,3679936,320,203.285
B,9,3477928,sinestep1.wav,None,1000,27,3681936,1239,205.285
B,9,3477928,sinestep1.wav,None,1000,27,3683935,322,207.285
B,9,3477928,sinestep3.wav,None,1000,27,3685935,320,209.285
B,9,3477928,silence.wav,None,1000,27,3687935,329,211.285
B,9,3477928,silence.wav,None,1000,27,3689935,332,213.285
B,9,3477928,sinestep5_catch.wav,2,64,27,3691935,340,215.285
B,9,3477928,sinestep7.wav,None,1000,27,3693935,1246,217.285
B,9,3477928,sinestep7.wav,None,1000,27,3695935,320,219.285
B,9,3477928,vowelstep3.wav,None,1000,27,3697936,322,221.285
B,9,3477928,sinestep1_catch.wav,2,44,27,3699936,317,223.285
B,9,3477928,vowelstep5.wav,None,1000,27,3701936,1285,225.285
B,9,3477928,sinestep1.wav,None,1000,27,3703936,331,227.285
B,9,3477928,vowelstep1.wav,None,1000,27,3705936,329,229.285
B,9,3477928,vowelstep1.wav,None,1000,27,3707935,340,231.285
B,9,3477928,sinestep5.wav,None,1000,27,3709935,340,233.285
B,9,3477928,silence.wav,None,1000,27,3711935,340,235.285
B,9,3477928,silence.wav,None,1000,27,3713935,346,237.285
B,9,3477928,vowelstep1.wav,None,1000,27,3715936,330,239.285
B,9,3477928,vowelstep1.wav,None,1000,27,3717936,325,241.285
B,9,3477928,silence.wav,None,1000,27,3719936,330,243.285
B,9,3477928,vowelstep1_catch.wav,2,289,27,3721936,338,245.285
B,9,3477928,sinestep7.wav,None,1000,27,3723936,1049,247.285
B,9,3477928,sinestep1.wav,None,1000,27,3725936,346,249.285
B,9,3477928,vowelstep1.wav,None,1000,27,3727936,347,251.285
B,9,3477928,vowelstep3.wav,None,1000,27,3729936,329,253.285
B,9,3477928,sinestep3.wav,None,1000,27,3731935,330,255.285
B,9,3477928,silence.wav,None,1000,27,3733936,333,257.285
B,9,3477928,vowelstep3.wav,None,1000,27,3735936,339,259.285
B,9,3477928,silence.wav,None,1000,27,3737936,340,261.285
B,9,3477928,vowelstep3.wav,None,1000,27,3739936,337,263.285
B,9,3477928,sinestep5.wav,None,1000,27,3741936,339,265.285
B,9,3477928,vowelstep3_catch.wav,2,185,27,3743936,325,267.285
B,9,3477928,sinestep3.wav,None,1000,27,3745936,1142,269.285
B,9,3477928,sinestep1.wav,None,1000,27,3747936,328,271.285
B,9,3477928,vowelstep3.wav,None,1000,27,3749937,334,273.285
B,9,3477928,vowelstep1.wav,None,1000,27,3751937,338,275.285
B,9,3477928,vowelstep5_catch.wav,2,48,27,3753937,336,277.285
B,9,3477928,vowelstep1.wav,None,1000,27,3755937,1268,279.285
B,9,3477928,vowelstep5.wav,None,1000,27,3757936,327,281.285
B,9,3477928,sinestep7.wav,None,1000,27,3759936,322,283.285
B,9,3477928,vowelstep7.wav,None,1000,27,3761936,329,285.285
B,9,3477928,vowelstep1_catch.wav,2,90,27,3763936,332,287.285
B,9,3477928,sinestep1.wav,None,1000,27,3765936,1247,289.285
B,9,3477928,vowelstep1.wav,None,1000,27,3767937,337,291.285
B,9,3477928,sinestep5.wav,None,1000,27,3769937,336,293.285
B,9,3477928,vowelstep7.wav,None,1000,27,3771937,326,295.285
B,9,3477928,sinestep7.wav,None,1000,27,3773937,327,297.285
B,9,3477928,vowelstep7_catch.wav,2,67,27,3775937,323,299.285
B,9,3477928,sinestep3.wav,None,1000,27,3777937,1268,301.285
B,9,3477928,vowelstep3.wav,None,1000,27,3779937,331,303.285
B,9,3477928,sinestep5.wav,None,1000,27,3781936,337,305.285
B,9,3477928,vowelstep1.wav,None,1000,27,3783936,345,307.285
B,9,3477928,vowelstep7.wav,None,1000,27,3785937,326,309.285
B,9,3477928,vowelstep1.wav,None,1000,27,3787937,325,311.285
B,9,3477928,sinestep7.wav,None,1000,27,3789937,325,313.285
B,9,3477928,sinestep3.wav,None,1000,27,3791937,326,315.285
B,9,3477928,silence.wav,None,1000,27,3793937,331,317.285
B,9,3477928,vowelstep1.wav,None,1000,27,3795937,334,319.285