block,count_main_sequence,first_trial_timestamp,fname,response_catch_response,response_time_catch_response,subject_nr,time_stimulus,time_to_pad,timing
P,NA,263569,vowelstep1_catch.wav,None,1000,18,263575,0,
P,NA,263569,sinestep7_catch.wav,1,414,18,265575,451,
P,NA,263569,vowelstep5_catch.wav,1,296,18,267575,1019,
P,NA,263569,sinestep7.wav,None,1000,18,269575,1148,
P,NA,263569,sinestep7.wav,None,1000,18,271576,444,
P,NA,263569,sinestep3.wav,None,1000,18,273576,453,
P,NA,263569,sinestep1.wav,None,1000,18,275576,453,
P,NA,263569,vowelstep7.wav,None,1000,18,277576,453,
P,NA,263569,vowelstep3.wav,None,1000,18,279576,455,
P,NA,263569,silence.wav,None,1000,18,281576,433,
P,NA,263569,sinestep1.wav,None,1000,18,283575,443,
P,NA,263569,vowelstep1.wav,None,1000,18,285575,444,
P,NA,263569,sinestep5.wav,None,1000,18,287575,443,
P,NA,263569,sinestep1.wav,None,1000,18,289576,453,
P,NA,263569,sinestep1.wav,None,1000,18,291576,452,
P,NA,263569,vowelstep1.wav,None,1000,18,293576,452,
P,NA,263569,silence.wav,None,1000,18,295576,462,
P,NA,263569,silence.wav,None,1000,18,297576,443,
P,NA,263569,silence.wav,None,1000,18,299576,442,
P,NA,263569,sinestep3_catch.wav,1,226,18,301576,441,
P,NA,263569,vowelstep7.wav,None,1000,18,303576,1215,
P,NA,263569,silence.wav,None,1000,18,305577,452,
P,NA,263569,vowelstep7.wav,None,1000,18,307576,451,
P,NA,263569,vowelstep3.wav,None,1000,18,309576,431,
P,NA,263569,silence.wav,None,1000,18,311576,441,
P,NA,263569,vowelstep1.wav,None,1000,18,313576,442,
P,NA,263569,sinestep3.wav,None,1000,18,315576,441,
P,NA,263569,vowelstep1.wav,None,1000,18,317576,451,
P,NA,263569,silence.wav,None,1000,18,319576,451,
P,NA,263569,sinestep7.wav,None,1000,18,321576,451,
P,NA,263569,sinestep5_catch.wav,1,275,18,323577,460,
P,NA,263569,silence.wav,None,1000,18,325577,1185,
P,NA,263569,sinestep7.wav,None,1000,18,327577,440,
P,NA,263569,sinestep5.wav,None,1000,18,329577,440,
P,NA,263569,sinestep3.wav,None,1000,18,331576,440,
P,NA,263569,sinestep1_catch.wav,1,254,18,333576,450,
P,NA,263569,vowelstep3_catch.wav,1,404,18,335576,1195,
P,NA,263569,vowelstep5_catch.wav,1,287,18,337576,1055,
P,NA,263569,vowelstep7.wav,None,1000,18,339576,1142,
P,NA,263569,silence.wav,None,1000,18,341577,440,
P,NA,263569,vowelstep7_catch.wav,1,354,18,343577,438,
P,NA,263569,vowelstep3.wav,None,1000,18,345577,1094,
P,NA,263569,silence.wav,None,1000,18,347577,449,
P,NA,263569,sinestep7_catch.wav,1,264,18,349577,449,
P,NA,263569,sinestep7.wav,None,1000,18,351577,1193,
P,NA,263569,vowelstep5.wav,None,1000,18,353577,430,
P,NA,263569,vowelstep3.wav,None,1000,18,355576,439,
P,NA,263569,sinestep5.wav,None,1000,18,357576,438,
P,NA,263569,sinestep5_catch.wav,1,361,18,359577,448,
P,NA,263569,sinestep3.wav,None,1000,18,361577,1086,
P,NA,263569,silence.wav,None,1000,18,363577,448,
P,NA,263569,vowelstep7.wav,None,1000,18,365577,458,
P,NA,263569,sinestep3_catch.wav,1,240,18,367577,458,
P,NA,263569,vowelstep5.wav,None,1000,18,369577,1197,
P,NA,263569,silence.wav,None,1000,18,371577,437,
P,NA,263569,sinestep1.wav,None,1000,18,373577,438,
P,NA,263569,vowelstep1.wav,None,1000,18,375578,447,
P,NA,263569,silence.wav,None,1000,18,377578,447,
P,NA,263569,silence.wav,None,1000,18,379578,457,
P,NA,263569,silence.wav,None,1000,18,381577,427,
P,NA,263569,sinestep1_catch.wav,1,414,18,383577,436,
P,NA,263569,sinestep1.wav,None,1000,18,385577,1022,
P,NA,263569,silence.wav,None,1000,18,387577,435,
P,NA,263569,vowelstep1_catch.wav,1,296,18,389577,446,
P,NA,263569,vowelstep5.wav,None,1000,18,391577,1150,
P,NA,263569,sinestep5.wav,None,1000,18,393578,447,
P,NA,263569,vowelstep3.wav,None,1000,18,395578,456,
P,NA,263569,silence.wav,None,1000,18,397578,434,
P,NA,263569,silence.wav,None,1000,18,399578,435,
P,NA,263569,sinestep7.wav,None,1000,18,401578,436,
P,NA,263569,vowelstep5.wav,None,1000,18,403578,445,
P,NA,263569,silence.wav,None,1000,18,405577,445,
P,NA,263569,vowelstep3_catch.wav,1,320,18,407577,446,
P,NA,263569,silence.wav,None,1000,18,409577,1105,
P,NA,263569,vowelstep5.wav,None,1000,18,411578,435,
P,NA,263569,vowelstep5_catch.wav,1,295,18,413578,434,
P,NA,263569,vowelstep7_catch.wav,1,299,18,415578,1140,
P,NA,263569,sinestep3.wav,None,1000,18,417578,1145,
P,NA,263569,vowelstep5.wav,None,1000,18,419578,444,
P,NA,263569,vowelstep3.wav,None,1000,18,421578,444,
P,NA,263569,silence.wav,None,1000,18,423578,454,
P,NA,263569,sinestep3.wav,None,1000,18,425578,435,
P,NA,263569,silence.wav,None,1000,18,427578,434,
P,NA,263569,sinestep7_catch.wav,1,296,18,429578,433,
P,NA,263569,sinestep5_catch.wav,1,282,18,431578,1147,
P,NA,263569,sinestep5.wav,None,1000,18,433578,1161,
P,NA,263569,sinestep5.wav,None,1000,18,435578,443,
P,NA,263569,vowelstep7.wav,None,1000,18,437578,453,
P,NA,263569,sinestep3_catch.wav,1,352,18,439578,434,
P,NA,263569,vowelstep1.wav,None,1000,18,441578,1100,
J,0,845260,sinestep5_catch.wav,1,531,18,845268,0,1.285
J,0,845260,sinestep5.wav,None,1000,18,847268,804,3.285
J,0,845260,sinestep3.wav,None,1000,18,849269,336,5.285
J,0,845260,sinestep1.wav,None,1000,18,851268,304,7.285
J,0,845260,sinestep7.wav,None,1000,18,853268,346,9.285
J,0,845260,vowelstep3.wav,None,1000,18,855268,350,11.285
J,0,845260,sinestep1.wav,None,1000,18,857268,349,13.285
J,0,845260,vowelstep5.wav,None,1000,18,859268,360,15.285
J,0,845260,vowelstep3.wav,None,1000,18,861268,330,17.285
J,0,845260,vowelstep1.wav,None,1000,18,863268,340,19.285
J,0,845260,vowelstep1.wav,None,1000,18,865269,340,21.285
J,0,845260,sinestep3.wav,None,1000,18,867269,350,23.285
J,0,845260,silence.wav,None,1000,18,869269,349,25.285
J,0,845260,vowelstep7.wav,None,1000,18,871269,350,27.285
J,0,845260,sinestep3.wav,None,1000,18,873269,346,29.285
J,0,845260,sinestep7.wav,None,1000,18,875268,330,31.285
J,0,845260,silence.wav,None,1000,18,877268,338,33.285
J,0,845260,vowelstep5.wav,None,1000,18,879268,340,35.285
J,0,845260,sinestep1.wav,None,1000,18,881268,339,37.285
J,0,845260,sinestep1_catch.wav,1,188,18,883269,349,39.285
J,0,845260,sinestep7.wav,None,1000,18,885269,1160,41.285
J,0,845260,vowelstep7.wav,None,1000,18,887269,348,43.285
J,0,845260,sinestep3_catch.wav,1,179,18,889269,325,45.285
J,0,845260,vowelstep3.wav,None,1000,18,891269,1159,47.285
J,0,845260,vowelstep7.wav,None,1000,18,893269,337,49.285
J,0,845260,sinestep1.wav,None,1000,18,895269,348,51.285
J,0,845260,vowelstep3.wav,None,1000,18,897269,347,53.285
J,0,845260,vowelstep1.wav,None,1000,18,899268,348,55.285
J,0,845260,sinestep5.wav,None,1000,18,901269,348,57.285
J,0,845260,sinestep5_catch.wav,1,278,18,903269,334,59.285
J,0,845260,sinestep5.wav,None,1000,18,905269,1059,61.285
J,0,845260,vowelstep7.wav,None,1000,18,907269,336,63.285
J,0,845260,sinestep7.wav,None,1000,18,909269,335,65.285
J,0,845260,vowelstep1.wav,None,1000,18,911269,348,67.285
J,0,845260,sinestep7_catch.wav,1,100,18,913269,343,69.285
J,0,845260,silence.wav,None,1000,18,915269,1253,71.285
J,0,845260,vowelstep5.wav,None,1000,18,917269,353,73.285
J,0,845260,sinestep5.wav,None,1000,18,919270,336,75.285
J,0,845260,sinestep5.wav,None,1000,18,921270,335,77.285
J,0,845260,vowelstep3.wav,None,1000,18,923270,336,79.285
J,0,845260,vowelstep5.wav,None,1000,18,925269,346,81.285
J,0,845260,sinestep3.wav,None,1000,18,927269,346,83.285
J,0,845260,silence.wav,None,1000,18,929269,346,85.285
J,0,845260,vowelstep3.wav,None,1000,18,931269,355,87.285
J,0,845260,vowelstep7.wav,None,1000,18,933269,336,89.285
J,0,845260,silence.wav,None,1000,18,935270,336,91.285
J,0,845260,sinestep3.wav,None,1000,18,937270,332,93.285
J,0,845260,silence.wav,None,1000,18,939270,345,95.285
J,0,845260,sinestep1.wav,None,1000,18,941270,345,97.285
J,0,845260,sinestep5_catch.wav,1,165,18,943270,346,99.285
J,0,845260,sinestep7.wav,None,1000,18,945270,1189,101.285
J,0,845260,sinestep5.wav,None,1000,18,947270,335,103.285
J,0,845260,sinestep5.wav,None,1000,18,949269,335,105.285
J,0,845260,sinestep3.wav,None,1000,18,951269,335,107.285
J,0,845260,sinestep3_catch.wav,1,125,18,953270,335,109.285
J,0,845260,sinestep3.wav,None,1000,18,955270,1219,111.285
J,0,845260,silence.wav,None,1000,18,957270,344,113.285
J,0,845260,sinestep1.wav,None,1000,18,959270,354,115.285
J,0,845260,silence.wav,None,1000,18,961270,323,117.285
J,0,845260,vowelstep3.wav,None,1000,18,963270,334,119.285
J,0,845260,vowelstep5.wav,None,1000,18,965270,334,121.285
J,0,845260,vowelstep7.wav,None,1000,18,967270,340,123.285
J,0,845260,silence.wav,None,1000,18,969270,341,125.285
J,0,845260,sinestep1.wav,None,1000,18,971271,343,127.285
J,0,845260,sinestep3.wav,None,1000,18,973270,342,129.285
J,0,845260,sinestep7.wav,None,1000,18,975270,333,131.285
J,0,845260,silence.wav,None,1000,18,977270,329,133.285
J,0,845260,sinestep1.wav,None,1000,18,979270,329,135.285
J,0,845260,vowelstep7.wav,None,1000,18,981270,328,137.285
J,0,845260,sinestep5.wav,None,1000,18,983270,342,139.285
J,0,845260,vowelstep1.wav,None,1000,18,985270,341,141.285
J,0,845260,vowelstep7.wav,None,1000,18,987270,352,143.285
J,0,845260,vowelstep3.wav,None,1000,18,989271,331,145.285
J,0,845260,vowelstep3.wav,None,1000,18,991271,331,147.285
J,0,845260,sinestep7.wav,None,1000,18,993271,331,149.285
J,0,845260,vowelstep5.wav,None,1000,18,995271,342,151.285
J,0,845260,silence.wav,None,1000,18,997270,342,153.285
J,0,845260,sinestep1.wav,None,1000,18,999270,342,155.285
J,0,845260,sinestep3.wav,None,1000,18,1001270,338,157.285
J,0,845260,silence.wav,None,1000,18,1003270,352,159.285
J,0,845260,sinestep1.wav,None,1000,18,1005271,349,161.285
J,0,845260,vowelstep7.wav,None,1000,18,1007271,361,163.285
J,0,845260,vowelstep7.wav,None,1000,18,1009271,330,165.285
J,0,845260,sinestep1_catch.wav,1,154,18,1011271,341,167.285
J,0,845260,vowelstep1_catch.wav,1,303,18,1013271,1186,169.285
J,0,845260,vowelstep1.wav,None,1000,18,1015271,1037,171.285
J,0,845260,vowelstep7.wav,None,1000,18,1017271,350,173.285
J,0,845260,sinestep1.wav,None,1000,18,1019271,331,175.285
J,0,845260,vowelstep5.wav,None,1000,18,1021270,361,177.285
J,0,845260,vowelstep5.wav,None,1000,18,1023271,330,179.285
J,0,845260,sinestep5.wav,None,1000,18,1025271,339,181.285
J,0,845260,sinestep7.wav,None,1000,18,1027271,340,183.285
J,0,845260,sinestep7.wav,None,1000,18,1029271,340,185.285
J,0,845260,sinestep1.wav,None,1000,18,1031271,346,187.285
J,0,845260,vowelstep1.wav,None,1000,18,1033271,346,189.285
J,0,845260,silence.wav,None,1000,18,1035271,349,191.285
J,0,845260,sinestep5.wav,None,1000,18,1037271,354,193.285
J,0,845260,vowelstep5.wav,None,1000,18,1039271,340,195.285
J,0,845260,vowelstep1.wav,None,1000,18,1041272,335,197.285
J,0,845260,vowelstep1.wav,None,1000,18,1043272,336,199.285
J,0,845260,sinestep3.wav,None,1000,18,1045272,345,201.285
J,0,845260,sinestep3.wav,None,1000,18,1047271,349,203.285
J,0,845260,silence.wav,None,1000,18,1049271,348,205.285
J,0,845260,sinestep5.wav,None,1000,18,1051271,329,207.285
J,0,845260,vowelstep1.wav,None,1000,18,1053271,339,209.285
J,0,845260,vowelstep5.wav,None,1000,18,1055271,338,211.285
J,0,845260,vowelstep3.wav,None,1000,18,1057271,340,213.285
J,0,845260,vowelstep3.wav,None,1000,18,1059272,348,215.285
J,0,845260,silence.wav,None,1000,18,1061272,348,217.285
J,0,845260,sinestep1.wav,None,1000,18,1063272,348,219.285
J,0,845260,vowelstep3.wav,None,1000,18,1065272,358,221.285
J,0,845260,sinestep7.wav,None,1000,18,1067272,337,223.285
J,0,845260,vowelstep7.wav,None,1000,18,1069271,337,225.285
J,0,845260,silence.wav,None,1000,18,1071271,338,227.285
J,0,845260,vowelstep5.wav,None,1000,18,1073271,347,229.285
J,0,845260,silence.wav,None,1000,18,1075272,347,231.285
J,0,845260,sinestep3.wav,None,1000,18,1077272,346,233.285
J,0,845260,vowelstep5.wav,None,1000,18,1079272,356,235.285
J,0,845260,vowelstep3.wav,None,1000,18,1081272,337,237.285
J,0,845260,vowelstep5.wav,None,1000,18,1083272,337,239.285
J,0,845260,vowelstep7.wav,None,1000,18,1085272,336,241.285
J,0,845260,vowelstep1.wav,None,1000,18,1087272,347,243.285
J,0,845260,sinestep7.wav,None,1000,18,1089272,346,245.285
J,0,845260,sinestep7.wav,None,1000,18,1091272,346,247.285
J,0,845260,silence.wav,None,1000,18,1093272,357,249.285
J,0,845260,vowelstep1.wav,None,1000,18,1095272,322,251.285
J,0,845260,vowelstep3_catch.wav,1,148,18,1097272,336,253.285
J,0,845260,vowelstep1.wav,None,1000,18,1099272,1186,255.285
J,0,845260,vowelstep5_catch.wav,1,181,18,1101272,342,257.285
J,0,845260,silence.wav,None,1000,18,1103272,1165,259.285
J,0,845260,sinestep5.wav,None,1000,18,1105272,340,261.285
J,0,845260,vowelstep1.wav,None,1000,18,1107272,342,263.285
J,0,845260,sinestep5.wav,None,1000,18,1109272,334,265.285
J,0,845260,vowelstep3.wav,None,1000,18,1111273,334,267.285
J,0,845260,sinestep5.wav,None,1000,18,1113273,334,269.285
J,0,845260,sinestep7.wav,None,1000,18,1115273,334,271.285
J,0,845260,silence.wav,None,1000,18,1117273,344,273.285
J,0,845260,vowelstep7_catch.wav,1,214,18,1119272,344,275.285
J,0,845260,sinestep3.wav,None,1000,18,1121272,1130,277.285
J,0,845260,vowelstep5.wav,None,1000,18,1123272,325,279.285
J,0,845260,silence.wav,None,1000,18,1125272,334,281.285
J,0,845260,silence.wav,None,1000,18,1127273,334,283.285
J,0,845260,silence.wav,None,1000,18,1129273,330,285.285
J,0,845260,vowelstep7.wav,None,1000,18,1131273,344,287.285
J,0,845260,sinestep3.wav,None,1000,18,1133273,342,289.285
J,0,845260,vowelstep5_catch.wav,1,233,18,1135273,343,291.285
J,0,845260,silence.wav,None,1000,18,1137273,1099,293.285
J,0,845260,sinestep7.wav,None,1000,18,1139273,333,295.285
J,0,845260,vowelstep1.wav,None,1000,18,1141273,333,297.285
J,0,845260,silence.wav,None,1000,18,1143272,333,299.285
J,0,845260,sinestep1.wav,None,1000,18,1145273,342,301.285
J,0,845260,sinestep5.wav,None,1000,18,1147273,342,303.285
J,0,845260,vowelstep5.wav,None,1000,18,1149273,343,305.285
J,0,845260,vowelstep3.wav,None,1000,18,1151273,351,307.285
J,0,845260,sinestep7.wav,None,1000,18,1153273,332,309.285
J,0,845260,vowelstep7.wav,None,1000,18,1155273,332,311.285
J,0,845260,vowelstep3_catch.wav,1,268,18,1157273,332,313.285
J,0,845260,vowelstep1_catch.wav,1,269,18,1159273,1075,315.285
J,0,845260,sinestep3.wav,None,1000,18,1161273,1069,317.285
J,0,845260,sinestep1.wav,None,1000,18,1163274,343,319.285
E,1,1221812,vowelstep7.wav,None,1000,18,1221824,0,1.285
E,1,1221812,sinestep3.wav,None,1000,18,1223824,337,3.285
E,1,1221812,sinestep5.wav,None,1000,18,1225824,347,5.285
E,1,1221812,sinestep1.wav,None,1000,18,1227824,317,7.285
E,1,1221812,sinestep5.wav,None,1000,18,1229824,326,9.285
E,1,1221812,silence.wav,None,1000,18,1231824,330,11.285
E,1,1221812,vowelstep1.wav,None,1000,18,1233825,329,13.285
E,1,1221812,vowelstep7.wav,None,1000,18,1235825,339,15.285
E,1,1221812,vowelstep1.wav,None,1000,18,1237825,339,17.285
E,1,1221812,sinestep1_catch.wav,1,147,18,1239824,339,19.285
E,1,1221812,vowelstep5.wav,None,1000,18,1241824,1202,21.285
E,1,1221812,sinestep5.wav,None,1000,18,1243824,350,23.285
E,1,1221812,vowelstep5.wav,None,1000,18,1245824,349,25.285
E,1,1221812,vowelstep3.wav,None,1000,18,1247824,329,27.285
E,1,1221812,sinestep1.wav,None,1000,18,1249825,335,29.285
E,1,1221812,vowelstep5.wav,None,1000,18,1251825,338,31.285
E,1,1221812,silence.wav,None,1000,18,1253825,336,33.285
E,1,1221812,silence.wav,None,1000,18,1255825,348,35.285
E,1,1221812,sinestep3.wav,None,1000,18,1257825,348,37.285
E,1,1221812,sinestep3.wav,None,1000,18,1259825,328,39.285
E,1,1221812,sinestep3.wav,None,1000,18,1261825,328,41.285
E,1,1221812,sinestep1.wav,None,1000,18,1263824,338,43.285
E,1,1221812,vowelstep1.wav,None,1000,18,1265824,334,45.285
E,1,1221812,sinestep1.wav,None,1000,18,1267825,338,47.285
E,1,1221812,vowelstep7.wav,None,1000,18,1269825,345,49.285
E,1,1221812,vowelstep5.wav,None,1000,18,1271825,347,51.285
E,1,1221812,sinestep7.wav,None,1000,18,1273825,347,53.285
E,1,1221812,sinestep1.wav,None,1000,18,1275825,357,55.285
E,1,1221812,vowelstep5.wav,None,1000,18,1277825,337,57.285
E,1,1221812,sinestep3.wav,None,1000,18,1279825,334,59.285
E,1,1221812,vowelstep1.wav,None,1000,18,1281825,337,61.285
E,1,1221812,vowelstep5.wav,None,1000,18,1283825,343,63.285
E,1,1221812,vowelstep3.wav,None,1000,18,1285826,343,65.285
E,1,1221812,sinestep1.wav,None,1000,18,1287825,347,67.285
E,1,1221812,vowelstep3.wav,None,1000,18,1289825,341,69.285
E,1,1221812,silence.wav,None,1000,18,1291825,333,71.285
E,1,1221812,vowelstep3.wav,None,1000,18,1293825,332,73.285
E,1,1221812,sinestep3_catch.wav,1,223,18,1295825,336,75.285
E,1,1221812,sinestep3.wav,None,1000,18,1297825,1121,77.285
E,1,1221812,vowelstep3.wav,None,1000,18,1299825,345,79.285
E,1,1221812,vowelstep7.wav,None,1000,18,1301825,345,81.285
E,1,1221812,silence.wav,None,1000,18,1303826,355,83.285
E,1,1221812,sinestep3.wav,None,1000,18,1305826,335,85.285
E,1,1221812,silence.wav,None,1000,18,1307826,331,87.285
E,1,1221812,sinestep1.wav,None,1000,18,1309826,335,89.285
E,1,1221812,sinestep5_catch.wav,1,218,18,1311826,334,91.285
E,1,1221812,vowelstep3.wav,None,1000,18,1313825,1126,93.285
E,1,1221812,sinestep5.wav,None,1000,18,1315825,345,95.285
E,1,1221812,vowelstep7.wav,None,1000,18,1317825,354,97.285
E,1,1221812,sinestep1.wav,None,1000,18,1319826,325,99.285
E,1,1221812,sinestep5.wav,None,1000,18,1321826,334,101.285
E,1,1221812,sinestep5.wav,None,1000,18,1323826,331,103.285
E,1,1221812,vowelstep7.wav,None,1000,18,1325826,344,105.285
E,1,1221812,vowelstep3.wav,None,1000,18,1327826,342,107.285
E,1,1221812,vowelstep7.wav,None,1000,18,1329826,344,109.285
E,1,1221812,sinestep5.wav,None,1000,18,1331826,344,111.285
E,1,1221812,vowelstep3.wav,None,1000,18,1333826,324,113.285
E,1,1221812,vowelstep7.wav,None,1000,18,1335826,334,115.285
E,1,1221812,sinestep3.wav,None,1000,18,1337826,333,117.285
E,1,1221812,vowelstep7.wav,None,1000,18,1339826,333,119.285
E,1,1221812,silence.wav,None,1000,18,1341826,343,121.285
E,1,1221812,silence.wav,None,1000,18,1343826,341,123.285
E,1,1221812,sinestep7.wav,None,1000,18,1345826,343,125.285
E,1,1221812,sinestep7_catch.wav,1,256,18,1347826,323,127.285
E,1,1221812,sinestep7.wav,None,1000,18,1349826,1076,129.285
E,1,1221812,silence.wav,None,1000,18,1351826,333,131.285
E,1,1221812,sinestep7_catch.wav,1,240,18,1353826,332,133.285
E,1,1221812,sinestep7.wav,None,1000,18,1355827,1101,135.285
E,1,1221812,sinestep5_catch.wav,1,169,18,1357827,342,137.285
E,1,1221812,sinestep1.wav,None,1000,18,1359827,1172,139.285
E,1,1221812,sinestep1.wav,None,1000,18,1361826,352,141.285
E,1,1221812,sinestep1.wav,None,1000,18,1363826,332,143.285
E,1,1221812,sinestep3.wav,None,1000,18,1365826,331,145.285
E,1,1221812,vowelstep5.wav,None,1000,18,1367826,332,147.285
E,1,1221812,silence.wav,None,1000,18,1369826,341,149.285
E,1,1221812,sinestep3_catch.wav,1,217,18,1371826,342,151.285
E,1,1221812,silence.wav,None,1000,18,1373827,1123,153.285
E,1,1221812,sinestep7.wav,None,1000,18,1375827,351,155.285
E,1,1221812,sinestep5.wav,None,1000,18,1377827,331,157.285
E,1,1221812,silence.wav,None,1000,18,1379827,331,159.285
E,1,1221812,vowelstep5.wav,None,1000,18,1381827,331,161.285
E,1,1221812,vowelstep1.wav,None,1000,18,1383827,341,163.285
E,1,1221812,vowelstep3.wav,None,1000,18,1385826,341,165.285
E,1,1221812,sinestep5.wav,None,1000,18,1387826,341,167.285
E,1,1221812,sinestep7.wav,None,1000,18,1389827,351,169.285
E,1,1221812,vowelstep1.wav,None,1000,18,1391827,320,171.285
E,1,1221812,vowelstep7.wav,None,1000,18,1393827,330,173.285
E,1,1221812,sinestep3.wav,None,1000,18,1395827,330,175.285
E,1,1221812,silence.wav,None,1000,18,1397827,339,177.285
E,1,1221812,sinestep1_catch.wav,1,57,18,1399827,340,179.285
E,1,1221812,sinestep7.wav,None,1000,18,1401827,1281,181.285
E,1,1221812,vowelstep1.wav,None,1000,18,1403827,350,183.285
E,1,1221812,sinestep5.wav,None,1000,18,1405827,330,185.285
E,1,1221812,sinestep5.wav,None,1000,18,1407828,330,187.285
E,1,1221812,vowelstep1.wav,None,1000,18,1409827,329,189.285
E,1,1221812,sinestep7.wav,None,1000,18,1411827,329,191.285
E,1,1221812,sinestep3.wav,None,1000,18,1413827,338,193.285
E,1,1221812,sinestep7.wav,None,1000,18,1415827,339,195.285
E,1,1221812,silence.wav,None,1000,18,1417827,349,197.285
E,1,1221812,vowelstep1.wav,None,1000,18,1419827,318,199.285
E,1,1221812,sinestep1.wav,None,1000,18,1421827,329,201.285
E,1,1221812,vowelstep1.wav,None,1000,18,1423827,329,203.285
E,1,1221812,vowelstep1.wav,None,1000,18,1425828,338,205.285
E,1,1221812,vowelstep1_catch.wav,1,185,18,1427828,337,207.285
E,1,1221812,vowelstep1.wav,None,1000,18,1429828,1153,209.285
E,1,1221812,vowelstep1.wav,None,1000,18,1431828,337,211.285
E,1,1221812,silence.wav,None,1000,18,1433827,327,213.285
E,1,1221812,sinestep7.wav,None,1000,18,1435827,328,215.285
E,1,1221812,vowelstep7.wav,None,1000,18,1437827,328,217.285
E,1,1221812,vowelstep3_catch.wav,1,224,18,1439827,328,219.285
E,1,1221812,vowelstep5.wav,None,1000,18,1441827,1113,221.285
E,1,1221812,sinestep3.wav,None,1000,18,1443828,337,223.285
E,1,1221812,silence.wav,None,1000,18,1445828,346,225.285
E,1,1221812,sinestep1.wav,None,1000,18,1447828,346,227.285
E,1,1221812,sinestep5.wav,None,1000,18,1449828,326,229.285
E,1,1221812,sinestep5.wav,None,1000,18,1451828,327,231.285
E,1,1221812,sinestep3.wav,None,1000,18,1453828,326,233.285
E,1,1221812,sinestep5.wav,None,1000,18,1455828,336,235.285
E,1,1221812,vowelstep3.wav,None,1000,18,1457828,336,237.285
E,1,1221812,sinestep7.wav,None,1000,18,1459828,335,239.285
E,1,1221812,sinestep7.wav,None,1000,18,1461828,315,241.285
E,1,1221812,silence.wav,None,1000,18,1463828,325,243.285
E,1,1221812,sinestep3.wav,None,1000,18,1465828,326,245.285
E,1,1221812,sinestep3.wav,None,1000,18,1467828,326,247.285
E,1,1221812,vowelstep3.wav,None,1000,18,1469828,335,249.285
E,1,1221812,silence.wav,None,1000,18,1471828,337,251.285
E,1,1221812,sinestep7.wav,None,1000,18,1473828,336,253.285
E,1,1221812,silence.wav,None,1000,18,1475828,325,255.285
E,1,1221812,vowelstep7.wav,None,1000,18,1477829,325,257.285
E,1,1221812,vowelstep3.wav,None,1000,18,1479829,325,259.285
E,1,1221812,silence.wav,None,1000,18,1481829,324,261.285
E,1,1221812,vowelstep3.wav,None,1000,18,1483828,334,263.285
E,1,1221812,vowelstep1.wav,None,1000,18,1485828,334,265.285
E,1,1221812,vowelstep5.wav,None,1000,18,1487828,334,267.285
E,1,1221812,silence.wav,None,1000,18,1489828,341,269.285
E,1,1221812,vowelstep3.wav,None,1000,18,1491828,343,271.285
E,1,1221812,sinestep1.wav,None,1000,18,1493828,342,273.285
E,1,1221812,vowelstep5_catch.wav,1,540,18,1495829,354,275.285
E,1,1221812,sinestep7.wav,None,1000,18,1497829,792,277.285
E,1,1221812,sinestep7.wav,None,1000,18,1499829,333,279.285
E,1,1221812,vowelstep7.wav,None,1000,18,1501829,333,281.285
E,1,1221812,silence.wav,None,1000,18,1503829,335,283.285
E,1,1221812,sinestep5.wav,None,1000,18,1505829,343,285.285
E,1,1221812,silence.wav,None,1000,18,1507828,321,287.285
E,1,1221812,silence.wav,None,1000,18,1509828,353,289.285
E,1,1221812,vowelstep5.wav,None,1000,18,1511828,333,291.285
E,1,1221812,vowelstep5.wav,None,1000,18,1513829,333,293.285
E,1,1221812,silence.wav,None,1000,18,1515829,332,295.285
E,1,1221812,vowelstep5.wav,None,1000,18,1517829,341,297.285
E,1,1221812,vowelstep7_catch.wav,1,316,18,1519829,342,299.285
E,1,1221812,vowelstep7_catch.wav,1,211,18,1521829,1026,301.285
E,1,1221812,vowelstep5.wav,None,1000,18,1523829,1141,303.285
E,1,1221812,sinestep1.wav,None,1000,18,1525829,332,305.285
E,1,1221812,vowelstep3.wav,None,1000,18,1527829,332,307.285
E,1,1221812,vowelstep5_catch.wav,1,189,18,1529830,330,309.285
E,1,1221812,vowelstep7.wav,None,1000,18,1531829,1151,311.285
E,1,1221812,vowelstep5.wav,None,1000,18,1533829,340,313.285
E,1,1221812,vowelstep7.wav,None,1000,18,1535829,341,315.285
E,1,1221812,vowelstep1.wav,None,1000,18,1537829,351,317.285
E,1,1221812,vowelstep3_catch.wav,1,336,18,1539829,351,319.285
D,2,1597317,sinestep5.wav,None,1000,18,1597330,0,1.285
D,2,1597317,vowelstep1_catch.wav,1,203,18,1599331,342,3.285
D,2,1597317,sinestep7.wav,None,1000,18,1601331,1149,5.285
D,2,1597317,vowelstep3.wav,None,1000,18,1603331,352,7.285
D,2,1597317,vowelstep3_catch.wav,1,199,18,1605330,331,9.285
D,2,1597317,vowelstep5_catch.wav,1,261,18,1607330,1132,11.285
D,2,1597317,sinestep7.wav,None,1000,18,1609330,1070,13.285
D,2,1597317,silence.wav,None,1000,18,1611330,342,15.285
D,2,1597317,vowelstep7_catch.wav,1,305,18,1613330,342,17.285
D,2,1597317,vowelstep7.wav,None,1000,18,1615330,1046,19.285
D,2,1597317,vowelstep3.wav,None,1000,18,1617331,351,21.285
D,2,1597317,vowelstep7_catch.wav,1,220,18,1619331,330,23.285
D,2,1597317,vowelstep5.wav,None,1000,18,1621331,1109,25.285
D,2,1597317,sinestep7.wav,None,1000,18,1623331,331,27.285
D,2,1597317,silence.wav,None,1000,18,1625331,338,29.285
D,2,1597317,vowelstep1.wav,None,1000,18,1627331,341,31.285
D,2,1597317,vowelstep1.wav,None,1000,18,1629330,340,33.285
D,2,1597317,vowelstep7.wav,None,1000,18,1631330,350,35.285
D,2,1597317,vowelstep3.wav,None,1000,18,1633330,331,37.285
D,2,1597317,sinestep3.wav,None,1000,18,1635331,331,39.285
D,2,1597317,sinestep1.wav,None,1000,18,1637331,330,41.285
D,2,1597317,vowelstep1.wav,None,1000,18,1639331,340,43.285
D,2,1597317,vowelstep1.wav,None,1000,18,1641331,339,45.285
D,2,1597317,sinestep7.wav,None,1000,18,1643331,339,47.285
D,2,1597317,sinestep3.wav,None,1000,18,1645331,349,49.285
D,2,1597317,vowelstep5_catch.wav,1,197,18,1647331,319,51.285
D,2,1597317,sinestep7.wav,None,1000,18,1649331,1134,53.285
D,2,1597317,vowelstep5.wav,None,1000,18,1651331,330,55.285
D,2,1597317,sinestep3.wav,None,1000,18,1653331,338,57.285
D,2,1597317,sinestep7.wav,None,1000,18,1655331,339,59.285
D,2,1597317,vowelstep3.wav,None,1000,18,1657331,339,61.285
D,2,1597317,vowelstep3.wav,None,1000,18,1659331,349,63.285
D,2,1597317,vowelstep3_catch.wav,1,384,18,1661331,328,65.285
D,2,1597317,silence.wav,None,1000,18,1663331,944,67.285
D,2,1597317,vowelstep7.wav,None,1000,18,1665331,329,69.285
D,2,1597317,silence.wav,None,1000,18,1667331,339,71.285
D,2,1597317,sinestep1.wav,None,1000,18,1669332,339,73.285
D,2,1597317,vowelstep5.wav,None,1000,18,1671332,338,75.285
D,2,1597317,vowelstep1.wav,None,1000,18,1673332,348,77.285
D,2,1597317,sinestep7.wav,None,1000,18,1675332,327,79.285
D,2,1597317,vowelstep1.wav,None,1000,18,1677331,327,81.285
D,2,1597317,sinestep7.wav,None,1000,18,1679331,328,83.285
D,2,1597317,vowelstep7.wav,None,1000,18,1681331,337,85.285
D,2,1597317,vowelstep5.wav,None,1000,18,1683331,338,87.285
D,2,1597317,vowelstep1.wav,None,1000,18,1685331,338,89.285
D,2,1597317,sinestep5.wav,None,1000,18,1687332,348,91.285
D,2,1597317,sinestep5.wav,None,1000,18,1689332,317,93.285
D,2,1597317,vowelstep3.wav,None,1000,18,1691332,327,95.285
D,2,1597317,silence.wav,None,1000,18,1693332,323,97.285
D,2,1597317,sinestep1.wav,None,1000,18,1695332,335,99.285
D,2,1597317,sinestep1.wav,None,1000,18,1697332,335,101.285
D,2,1597317,sinestep3.wav,None,1000,18,1699332,331,103.285
D,2,1597317,vowelstep1.wav,None,1000,18,1701332,336,105.285
D,2,1597317,sinestep7.wav,None,1000,18,1703331,325,107.285
D,2,1597317,vowelstep3.wav,None,1000,18,1705332,326,109.285
D,2,1597317,silence.wav,None,1000,18,1707332,326,111.285
D,2,1597317,vowelstep5.wav,None,1000,18,1709332,327,113.285
D,2,1597317,vowelstep1.wav,None,1000,18,1711332,336,115.285
D,2,1597317,vowelstep1_catch.wav,1,281,18,1713332,335,117.285
D,2,1597317,vowelstep7.wav,None,1000,18,1715332,1063,119.285
D,2,1597317,sinestep5.wav,None,1000,18,1717332,316,121.285
D,2,1597317,vowelstep7.wav,None,1000,18,1719332,326,123.285
D,2,1597317,sinestep1.wav,None,1000,18,1721332,325,125.285
D,2,1597317,sinestep1.wav,None,1000,18,1723333,325,127.285
D,2,1597317,vowelstep3.wav,None,1000,18,1725333,334,129.285
D,2,1597317,sinestep1.wav,None,1000,18,1727332,335,131.285
D,2,1597317,silence.wav,None,1000,18,1729332,334,133.285
D,2,1597317,sinestep3.wav,None,1000,18,1731332,345,135.285
D,2,1597317,silence.wav,None,1000,18,1733332,324,137.285
D,2,1597317,vowelstep3.wav,None,1000,18,1735332,344,139.285
D,2,1597317,vowelstep5.wav,None,1000,18,1737332,324,141.285
D,2,1597317,silence.wav,None,1000,18,1739333,334,143.285
D,2,1597317,sinestep5.wav,None,1000,18,1741333,332,145.285
D,2,1597317,sinestep5.wav,None,1000,18,1743333,343,147.285
D,2,1597317,sinestep1.wav,None,1000,18,1745333,343,149.285
D,2,1597317,vowelstep5.wav,None,1000,18,1747333,320,151.285
D,2,1597317,vowelstep5.wav,None,1000,18,1749333,323,153.285
D,2,1597317,sinestep1_catch.wav,1,110,18,1751332,334,155.285
D,2,1597317,sinestep5.wav,None,1000,18,1753332,1222,157.285
D,2,1597317,vowelstep3.wav,None,1000,18,1755332,333,159.285
D,2,1597317,vowelstep7.wav,None,1000,18,1757333,333,161.285
D,2,1597317,vowelstep3.wav,None,1000,18,1759333,342,163.285
D,2,1597317,sinestep3.wav,None,1000,18,1761333,343,165.285
D,2,1597317,sinestep1.wav,None,1000,18,1763333,342,167.285
D,2,1597317,silence.wav,None,1000,18,1765333,352,169.285
D,2,1597317,sinestep1.wav,None,1000,18,1767333,332,171.285
D,2,1597317,vowelstep1.wav,None,1000,18,1769333,331,173.285
D,2,1597317,vowelstep3.wav,None,1000,18,1771333,332,175.285
D,2,1597317,silence.wav,None,1000,18,1773333,343,177.285
D,2,1597317,sinestep7.wav,None,1000,18,1775333,342,179.285
D,2,1597317,silence.wav,None,1000,18,1777333,341,181.285
D,2,1597317,vowelstep7.wav,None,1000,18,1779333,321,183.285
D,2,1597317,sinestep3.wav,None,1000,18,1781333,327,185.285
D,2,1597317,vowelstep1.wav,None,1000,18,1783333,327,187.285
D,2,1597317,sinestep7.wav,None,1000,18,1785333,331,189.285
D,2,1597317,silence.wav,None,1000,18,1787333,342,191.285
D,2,1597317,sinestep1.wav,None,1000,18,1789333,341,193.285
D,2,1597317,sinestep3.wav,None,1000,18,1791333,341,195.285
D,2,1597317,sinestep5.wav,None,1000,18,1793334,350,197.285
D,2,1597317,vowelstep3.wav,None,1000,18,1795334,330,199.285
D,2,1597317,sinestep5.wav,None,1000,18,1797334,330,201.285
D,2,1597317,sinestep5.wav,None,1000,18,1799333,330,203.285
D,2,1597317,sinestep3.wav,None,1000,18,1801333,329,205.285
D,2,1597317,sinestep3.wav,None,1000,18,1803333,340,207.285
D,2,1597317,sinestep5.wav,None,1000,18,1805333,339,209.285
D,2,1597317,sinestep3_catch.wav,1,146,18,1807333,350,211.285
D,2,1597317,vowelstep7.wav,None,1000,18,1809334,1173,213.285
D,2,1597317,sinestep1.wav,None,1000,18,1811334,329,215.285
D,2,1597317,sinestep7.wav,None,1000,18,1813334,326,217.285
D,2,1597317,vowelstep1.wav,None,1000,18,1815334,340,219.285
D,2,1597317,sinestep5.wav,None,1000,18,1817334,338,221.285
D,2,1597317,silence.wav,None,1000,18,1819334,340,223.285
D,2,1597317,sinestep5_catch.wav,1,249,18,1821334,338,225.285
D,2,1597317,sinestep5.wav,None,1000,18,1823333,1079,227.285
D,2,1597317,silence.wav,None,1000,18,1825333,326,229.285
D,2,1597317,vowelstep7.wav,None,1000,18,1827334,329,231.285
D,2,1597317,sinestep3.wav,None,1000,18,1829334,329,233.285
D,2,1597317,vowelstep5.wav,None,1000,18,1831334,338,235.285
D,2,1597317,vowelstep7.wav,None,1000,18,1833334,337,237.285
D,2,1597317,vowelstep5.wav,None,1000,18,1835334,347,239.285
D,2,1597317,silence.wav,None,1000,18,1837334,347,241.285
D,2,1597317,silence.wav,None,1000,18,1839334,328,243.285
D,2,1597317,silence.wav,None,1000,18,1841334,328,245.285
D,2,1597317,sinestep7.wav,None,1000,18,1843334,328,247.285
D,2,1597317,sinestep5.wav,None,1000,18,1845335,338,249.285
D,2,1597317,sinestep7_catch.wav,1,384,18,1847334,337,251.285
D,2,1597317,vowelstep1.wav,None,1000,18,1849334,963,253.285
D,2,1597317,vowelstep1.wav,None,1000,18,1851334,317,255.285
D,2,1597317,vowelstep3.wav,None,1000,18,1853334,327,257.285
D,2,1597317,silence.wav,None,1000,18,1855334,327,259.285
D,2,1597317,sinestep5.wav,None,1000,18,1857334,337,261.285
D,2,1597317,vowelstep7.wav,None,1000,18,1859334,337,263.285
D,2,1597317,vowelstep3.wav,None,1000,18,1861334,337,265.285
D,2,1597317,vowelstep7.wav,None,1000,18,1863335,332,267.285
D,2,1597317,vowelstep5.wav,None,1000,18,1865335,346,269.285
D,2,1597317,sinestep1.wav,None,1000,18,1867335,326,271.285
D,2,1597317,sinestep7.wav,None,1000,18,1869335,326,273.285
D,2,1597317,sinestep3.wav,None,1000,18,1871334,326,275.285
D,2,1597317,silence.wav,None,1000,18,1873334,333,277.285
D,2,1597317,sinestep7.wav,None,1000,18,1875334,335,279.285
D,2,1597317,vowelstep5.wav,None,1000,18,1877334,334,281.285
D,2,1597317,sinestep1.wav,None,1000,18,1879335,315,283.285
D,2,1597317,vowelstep1.wav,None,1000,18,1881335,325,285.285
D,2,1597317,sinestep1.wav,None,1000,18,1883335,324,287.285
D,2,1597317,vowelstep5.wav,None,1000,18,1885335,324,289.285
D,2,1597317,silence.wav,None,1000,18,1887335,335,291.285
D,2,1597317,sinestep3.wav,None,1000,18,1889335,335,293.285
D,2,1597317,vowelstep5.wav,None,1000,18,1891335,334,295.285
D,2,1597317,silence.wav,None,1000,18,1893335,342,297.285
D,2,1597317,sinestep3.wav,None,1000,18,1895335,325,299.285
D,2,1597317,vowelstep7.wav,None,1000,18,1897335,325,301.285
D,2,1597317,sinestep7_catch.wav,1,190,18,1899335,324,303.285
D,2,1597317,sinestep5_catch.wav,1,112,18,1901335,1142,305.285
D,2,1597317,sinestep3.wav,None,1000,18,1903335,1218,307.285
D,2,1597317,vowelstep5.wav,None,1000,18,1905335,334,309.285
D,2,1597317,silence.wav,None,1000,18,1907335,340,311.285
D,2,1597317,sinestep3_catch.wav,1,227,18,1909335,321,313.285
D,2,1597317,silence.wav,None,1000,18,1911335,1091,315.285
D,2,1597317,vowelstep7.wav,None,1000,18,1913335,318,317.285
D,2,1597317,silence.wav,None,1000,18,1915336,334,319.285
C,3,1972029,sinestep1.wav,None,1000,18,1972036,0,1.285
C,3,1972029,vowelstep1.wav,None,1000,18,1974036,341,3.285
C,3,1972029,sinestep1.wav,None,1000,18,1976036,341,5.285
C,3,1972029,sinestep1.wav,None,1000,18,1978036,350,7.285
C,3,1972029,vowelstep1.wav,None,1000,18,1980036,349,9.285
C,3,1972029,sinestep1.wav,None,1000,18,1982036,352,11.285
C,3,1972029,sinestep7.wav,None,1000,18,1984037,332,13.285
C,3,1972029,vowelstep7.wav,None,1000,18,1986037,340,15.285
C,3,1972029,vowelstep3.wav,None,1000,18,1988037,340,17.285
C,3,1972029,vowelstep5.wav,None,1000,18,1990037,339,19.285
C,3,1972029,silence.wav,None,1000,18,1992037,350,21.285
C,3,1972029,sinestep3.wav,None,1000,18,1994036,329,23.285
C,3,1972029,vowelstep5.wav,None,1000,18,1996036,351,25.285
C,3,1972029,sinestep1.wav,None,1000,18,1998036,339,27.285
C,3,1972029,vowelstep1.wav,None,1000,18,2000036,341,29.285
C,3,1972029,vowelstep7.wav,None,1000,18,2002037,339,31.285
C,3,1972029,vowelstep3.wav,None,1000,18,2004037,338,33.285
C,3,1972029,sinestep1.wav,None,1000,18,2006037,349,35.285
C,3,1972029,sinestep5.wav,None,1000,18,2008037,348,37.285
C,3,1972029,silence.wav,None,1000,18,2010037,349,39.285
C,3,1972029,vowelstep7.wav,None,1000,18,2012037,359,41.285
C,3,1972029,vowelstep5.wav,None,1000,18,2014037,336,43.285
C,3,1972029,sinestep5.wav,None,1000,18,2016037,339,45.285
C,3,1972029,silence.wav,None,1000,18,2018036,338,47.285
C,3,1972029,sinestep5.wav,None,1000,18,2020037,348,49.285
C,3,1972029,sinestep1.wav,None,1000,18,2022037,348,51.285
C,3,1972029,silence.wav,None,1000,18,2024037,346,53.285
C,3,1972029,vowelstep1.wav,None,1000,18,2026037,328,55.285
C,3,1972029,vowelstep1.wav,None,1000,18,2028037,338,57.285
C,3,1972029,sinestep1.wav,None,1000,18,2030037,338,59.285
C,3,1972029,silence.wav,None,1000,18,2032037,338,61.285
C,3,1972029,vowelstep5.wav,None,1000,18,2034037,347,63.285
C,3,1972029,vowelstep3.wav,None,1000,18,2036037,347,65.285
C,3,1972029,vowelstep3.wav,None,1000,18,2038038,346,67.285
C,3,1972029,vowelstep7.wav,None,1000,18,2040038,346,69.285
C,3,1972029,silence.wav,None,1000,18,2042037,336,71.285
C,3,1972029,vowelstep3.wav,None,1000,18,2044037,336,73.285
C,3,1972029,silence.wav,None,1000,18,2046037,337,75.285
C,3,1972029,sinestep5.wav,None,1000,18,2048037,337,77.285
C,3,1972029,vowelstep7.wav,None,1000,18,2050037,346,79.285
C,3,1972029,vowelstep1_catch.wav,1,176,18,2052037,347,81.285
C,3,1972029,vowelstep3.wav,None,1000,18,2054038,1180,83.285
C,3,1972029,sinestep7.wav,None,1000,18,2056038,324,85.285
C,3,1972029,vowelstep3.wav,None,1000,18,2058038,336,87.285
C,3,1972029,sinestep1.wav,None,1000,18,2060038,335,89.285
C,3,1972029,sinestep7.wav,None,1000,18,2062038,346,91.285
C,3,1972029,sinestep7.wav,None,1000,18,2064038,345,93.285
C,3,1972029,sinestep3.wav,None,1000,18,2066038,346,95.285
C,3,1972029,vowelstep3_catch.wav,1,203,18,2068037,355,97.285
C,3,1972029,sinestep5.wav,None,1000,18,2070037,1131,99.285
C,3,1972029,sinestep5.wav,None,1000,18,2072038,335,101.285
C,3,1972029,vowelstep3.wav,None,1000,18,2074038,334,103.285
C,3,1972029,vowelstep5.wav,None,1000,18,2076038,334,105.285
C,3,1972029,sinestep1.wav,None,1000,18,2078038,345,107.285
C,3,1972029,sinestep3.wav,None,1000,18,2080038,344,109.285
C,3,1972029,vowelstep5.wav,None,1000,18,2082038,355,111.285
C,3,1972029,vowelstep7.wav,None,1000,18,2084038,354,113.285
C,3,1972029,vowelstep1.wav,None,1000,18,2086038,334,115.285
C,3,1972029,sinestep7.wav,None,1000,18,2088038,334,117.285
C,3,1972029,sinestep3.wav,None,1000,18,2090039,335,119.285
C,3,1972029,vowelstep1.wav,None,1000,18,2092038,344,121.285
C,3,1972029,vowelstep1.wav,None,1000,18,2094038,344,123.285
C,3,1972029,sinestep3.wav,None,1000,18,2096038,344,125.285
C,3,1972029,silence.wav,None,1000,18,2098038,324,127.285
C,3,1972029,silence.wav,None,1000,18,2100038,329,129.285
C,3,1972029,vowelstep5_catch.wav,1,280,18,2102038,333,131.285
C,3,1972029,vowelstep5.wav,None,1000,18,2104038,1052,133.285
C,3,1972029,silence.wav,None,1000,18,2106038,344,135.285
C,3,1972029,sinestep1.wav,None,1000,18,2108039,343,137.285
C,3,1972029,vowelstep7.wav,None,1000,18,2110039,342,139.285
C,3,1972029,sinestep7.wav,None,1000,18,2112039,352,141.285
C,3,1972029,silence.wav,None,1000,18,2114039,332,143.285
C,3,1972029,silence.wav,None,1000,18,2116038,332,145.285
C,3,1972029,sinestep7.wav,None,1000,18,2118038,332,147.285
C,3,1972029,vowelstep1.wav,None,1000,18,2120038,342,149.285
C,3,1972029,vowelstep5.wav,None,1000,18,2122038,342,151.285
C,3,1972029,vowelstep5.wav,None,1000,18,2124039,341,153.285
C,3,1972029,vowelstep7.wav,None,1000,18,2126039,321,155.285
C,3,1972029,sinestep7.wav,None,1000,18,2128039,322,157.285
C,3,1972029,vowelstep1.wav,None,1000,18,2130039,331,159.285
C,3,1972029,vowelstep3.wav,None,1000,18,2132039,331,161.285
C,3,1972029,sinestep5.wav,None,1000,18,2134039,340,163.285
C,3,1972029,sinestep7.wav,None,1000,18,2136039,342,165.285
C,3,1972029,sinestep1.wav,None,1000,18,2138039,341,167.285
C,3,1972029,sinestep7.wav,None,1000,18,2140038,351,169.285
C,3,1972029,sinestep3.wav,None,1000,18,2142039,331,171.285
C,3,1972029,silence.wav,None,1000,18,2144039,330,173.285
C,3,1972029,vowelstep7.wav,None,1000,18,2146039,330,175.285
C,3,1972029,sinestep7.wav,None,1000,18,2148039,340,177.285
C,3,1972029,sinestep5.wav,None,1000,18,2150039,340,179.285
C,3,1972029,vowelstep7.wav,None,1000,18,2152039,340,181.285
C,3,1972029,vowelstep5.wav,None,1000,18,2154039,346,183.285
C,3,1972029,vowelstep3.wav,None,1000,18,2156039,284,185.285
C,3,1972029,vowelstep7_catch.wav,1,155,18,2158039,329,187.285
C,3,1972029,vowelstep3.wav,None,1000,18,2160040,1174,189.285
C,3,1972029,vowelstep5.wav,None,1000,18,2162040,339,191.285
C,3,1972029,vowelstep7.wav,None,1000,18,2164039,339,193.285
C,3,1972029,vowelstep7_catch.wav,1,207,18,2166039,339,195.285
C,3,1972029,vowelstep5_catch.wav,1,112,18,2168039,1142,197.285
C,3,1972029,sinestep5.wav,None,1000,18,2170039,1207,199.285
C,3,1972029,sinestep3.wav,None,1000,18,2172039,329,201.285
C,3,1972029,vowelstep3_catch.wav,1,186,18,2174039,329,203.285
C,3,1972029,vowelstep1_catch.wav,1,58,18,2176039,1143,205.285
C,3,1972029,vowelstep5.wav,None,1000,18,2178040,1280,207.285
C,3,1972029,vowelstep1.wav,None,1000,18,2180040,338,209.285
C,3,1972029,sinestep1_catch.wav,1,118,18,2182040,338,211.285
C,3,1972029,sinestep3_catch.wav,1,99,18,2184040,1229,213.285
C,3,1972029,sinestep1.wav,None,1000,18,2186040,1229,215.285
C,3,1972029,vowelstep3.wav,None,1000,18,2188039,328,217.285
C,3,1972029,sinestep3.wav,None,1000,18,2190039,328,219.285
C,3,1972029,vowelstep5.wav,None,1000,18,2192039,338,221.285
C,3,1972029,sinestep7.wav,None,1000,18,2194040,338,223.285
C,3,1972029,sinestep1.wav,None,1000,18,2196040,336,225.285
C,3,1972029,sinestep5_catch.wav,1,147,18,2198040,317,227.285
C,3,1972029,vowelstep7.wav,None,1000,18,2200040,1179,229.285
C,3,1972029,vowelstep3.wav,None,1000,18,2202040,327,231.285
C,3,1972029,silence.wav,None,1000,18,2204040,328,233.285
C,3,1972029,vowelstep1.wav,None,1000,18,2206040,338,235.285
C,3,1972029,sinestep5.wav,None,1000,18,2208040,336,237.285
C,3,1972029,sinestep1.wav,None,1000,18,2210040,337,239.285
C,3,1972029,vowelstep7.wav,None,1000,18,2212040,327,241.285
C,3,1972029,sinestep3.wav,None,1000,18,2214040,325,243.285
C,3,1972029,sinestep3.wav,None,1000,18,2216040,326,245.285
C,3,1972029,sinestep5.wav,None,1000,18,2218040,322,247.285
C,3,1972029,vowelstep3.wav,None,1000,18,2220040,336,249.285
C,3,1972029,sinestep3.wav,None,1000,18,2222040,334,251.285
C,3,1972029,silence.wav,None,1000,18,2224040,336,253.285
C,3,1972029,sinestep3.wav,None,1000,18,2226040,345,255.285
C,3,1972029,vowelstep1.wav,None,1000,18,2228040,345,257.285
C,3,1972029,silence.wav,None,1000,18,2230041,344,259.285
C,3,1972029,vowelstep1.wav,None,1000,18,2232041,355,261.285
C,3,1972029,silence.wav,None,1000,18,2234041,335,263.285
C,3,1972029,sinestep7.wav,None,1000,18,2236041,336,265.285
C,3,1972029,sinestep3.wav,None,1000,18,2238040,336,267.285
C,3,1972029,vowelstep1.wav,None,1000,18,2240040,343,269.285
C,3,1972029,sinestep7.wav,None,1000,18,2242040,346,271.285
C,3,1972029,sinestep7_catch.wav,1,434,18,2244040,344,273.285
C,3,1972029,vowelstep5.wav,None,1000,18,2246040,920,275.285
C,3,1972029,silence.wav,None,1000,18,2248041,334,277.285
C,3,1972029,silence.wav,None,1000,18,2250041,333,279.285
C,3,1972029,sinestep3.wav,None,1000,18,2252041,334,281.285
C,3,1972029,vowelstep7.wav,None,1000,18,2254041,344,283.285
C,3,1972029,sinestep5.wav,None,1000,18,2256041,344,285.285
C,3,1972029,sinestep5.wav,None,1000,18,2258041,343,287.285
C,3,1972029,vowelstep3.wav,None,1000,18,2260041,353,289.285
C,3,1972029,sinestep3.wav,None,1000,18,2262040,323,291.285
C,3,1972029,silence.wav,None,1000,18,2264041,332,293.285
C,3,1972029,silence.wav,None,1000,18,2266041,332,295.285
C,3,1972029,vowelstep7.wav,None,1000,18,2268041,343,297.285
C,3,1972029,silence.wav,None,1000,18,2270041,344,299.285
C,3,1972029,vowelstep5.wav,None,1000,18,2272041,344,301.285
C,3,1972029,sinestep5.wav,None,1000,18,2274041,352,303.285
C,3,1972029,silence.wav,None,1000,18,2276041,352,305.285
C,3,1972029,silence.wav,None,1000,18,2278041,331,307.285
C,3,1972029,silence.wav,None,1000,18,2280041,332,309.285
C,3,1972029,sinestep7_catch.wav,1,243,18,2282042,339,311.285
C,3,1972029,sinestep7.wav,None,1000,18,2284042,1098,313.285
C,3,1972029,sinestep5_catch.wav,1,184,18,2286041,341,315.285
C,3,1972029,sinestep5.wav,None,1000,18,2288041,1167,317.285
C,3,1972029,sinestep3_catch.wav,1,106,18,2290041,320,319.285
F,4,2348139,sinestep1.wav,None,1000,18,2348142,0,1.285
F,4,2348139,vowelstep5.wav,None,1000,18,2350158,348,3.285
F,4,2348139,vowelstep3.wav,None,1000,18,2352143,328,5.285
F,4,2348139,sinestep5.wav,None,1000,18,2354143,347,7.285
F,4,2348139,vowelstep7.wav,None,1000,18,2356159,358,9.285
F,4,2348139,silence.wav,None,1000,18,2358142,308,11.285
F,4,2348139,vowelstep5.wav,None,1000,18,2360142,338,13.285
F,4,2348139,sinestep3.wav,None,1000,18,2362142,337,15.285
F,4,2348139,sinestep3.wav,None,1000,18,2364142,347,17.285
F,4,2348139,silence.wav,None,1000,18,2366159,347,19.285
F,4,2348139,vowelstep7.wav,None,1000,18,2368159,327,21.285
F,4,2348139,vowelstep7.wav,None,1000,18,2370143,326,23.285
F,4,2348139,vowelstep1_catch.wav,1,128,18,2372143,336,25.285
F,4,2348139,vowelstep3_catch.wav,1,130,18,2374143,1208,27.285
F,4,2348139,vowelstep1.wav,None,1000,18,2376143,1206,29.285
F,4,2348139,sinestep5.wav,None,1000,18,2378143,348,31.285
F,4,2348139,sinestep5.wav,None,1000,18,2380143,346,33.285
F,4,2348139,vowelstep7.wav,None,1000,18,2382142,346,35.285
F,4,2348139,sinestep3.wav,None,1000,18,2384142,356,37.285
F,4,2348139,sinestep7.wav,None,1000,18,2386143,336,39.285
F,4,2348139,vowelstep5_catch.wav,1,83,18,2388143,335,41.285
F,4,2348139,sinestep1.wav,None,1000,18,2390143,1252,43.285
F,4,2348139,vowelstep7_catch.wav,1,220,18,2392143,335,45.285
F,4,2348139,vowelstep3.wav,None,1000,18,2394143,1123,47.285
F,4,2348139,sinestep1.wav,None,1000,18,2396143,345,49.285
F,4,2348139,sinestep7.wav,None,1000,18,2398143,356,51.285
F,4,2348139,silence.wav,None,1000,18,2400143,324,53.285
F,4,2348139,sinestep7.wav,None,1000,18,2402143,334,55.285
F,4,2348139,vowelstep1.wav,None,1000,18,2404144,335,57.285
F,4,2348139,vowelstep3.wav,None,1000,18,2406144,344,59.285
F,4,2348139,vowelstep7_catch.wav,1,109,18,2408143,341,61.285
F,4,2348139,sinestep5.wav,None,1000,18,2410143,1235,63.285
F,4,2348139,sinestep3.wav,None,1000,18,2412143,354,65.285
F,4,2348139,vowelstep3.wav,None,1000,18,2414143,334,67.285
F,4,2348139,silence.wav,None,1000,18,2416143,334,69.285
F,4,2348139,vowelstep1.wav,None,1000,18,2418143,335,71.285
F,4,2348139,vowelstep1.wav,None,1000,18,2420143,334,73.285
F,4,2348139,vowelstep5_catch.wav,1,161,18,2422144,344,75.285
F,4,2348139,silence.wav,None,1000,18,2424144,1182,77.285
F,4,2348139,vowelstep3.wav,None,1000,18,2426144,353,79.285
F,4,2348139,vowelstep5.wav,None,1000,18,2428144,324,81.285
F,4,2348139,vowelstep3_catch.wav,1,166,18,2430144,333,83.285
F,4,2348139,vowelstep3.wav,None,1000,18,2432143,1166,85.285
F,4,2348139,sinestep7.wav,None,1000,18,2434143,344,87.285
F,4,2348139,vowelstep1.wav,None,1000,18,2436143,343,89.285
F,4,2348139,sinestep1.wav,None,1000,18,2438143,343,91.285
F,4,2348139,vowelstep1_catch.wav,1,277,18,2440144,342,93.285
F,4,2348139,vowelstep5.wav,None,1000,18,2442144,1045,95.285
F,4,2348139,sinestep7.wav,None,1000,18,2444144,332,97.285
F,4,2348139,vowelstep7.wav,None,1000,18,2446144,330,99.285
F,4,2348139,vowelstep3.wav,None,1000,18,2448144,342,101.285
F,4,2348139,sinestep3.wav,None,1000,18,2450144,341,103.285
F,4,2348139,silence.wav,None,1000,18,2452144,342,105.285
F,4,2348139,sinestep1.wav,None,1000,18,2454144,343,107.285
F,4,2348139,sinestep1.wav,None,1000,18,2456144,332,109.285
F,4,2348139,silence.wav,None,1000,18,2458144,351,111.285
F,4,2348139,sinestep7.wav,None,1000,18,2460144,350,113.285
F,4,2348139,vowelstep3.wav,None,1000,18,2462144,330,115.285
F,4,2348139,sinestep3.wav,None,1000,18,2464144,341,117.285
F,4,2348139,vowelstep3.wav,None,1000,18,2466144,341,119.285
F,4,2348139,vowelstep7.wav,None,1000,18,2468144,341,121.285
F,4,2348139,vowelstep7.wav,None,1000,18,2470144,351,123.285
F,4,2348139,vowelstep5.wav,None,1000,18,2472144,331,125.285
F,4,2348139,sinestep1.wav,None,1000,18,2474145,351,127.285
F,4,2348139,silence.wav,None,1000,18,2476145,360,129.285
F,4,2348139,sinestep1.wav,None,1000,18,2478145,340,131.285
F,4,2348139,sinestep3.wav,None,1000,18,2480144,341,133.285
F,4,2348139,sinestep1_catch.wav,1,180,18,2482144,340,135.285
F,4,2348139,sinestep3.wav,None,1000,18,2484144,1169,137.285
F,4,2348139,sinestep3.wav,None,1000,18,2486144,350,139.285
F,4,2348139,silence.wav,None,1000,18,2488144,350,141.285
F,4,2348139,silence.wav,None,1000,18,2490144,360,143.285
F,4,2348139,sinestep7.wav,None,1000,18,2492145,340,145.285
F,4,2348139,sinestep5.wav,None,1000,18,2494145,339,147.285
F,4,2348139,vowelstep1.wav,None,1000,18,2496145,339,149.285
F,4,2348139,sinestep7.wav,None,1000,18,2498145,349,151.285
F,4,2348139,silence.wav,None,1000,18,2500145,349,153.285
F,4,2348139,sinestep3_catch.wav,1,292,18,2502145,347,155.285
F,4,2348139,vowelstep5.wav,None,1000,18,2504144,1067,157.285
F,4,2348139,sinestep3.wav,None,1000,18,2506144,338,159.285
F,4,2348139,vowelstep5.wav,None,1000,18,2508144,339,161.285
F,4,2348139,sinestep3.wav,None,1000,18,2510145,337,163.285
F,4,2348139,vowelstep3.wav,None,1000,18,2512145,336,165.285
F,4,2348139,vowelstep1.wav,None,1000,18,2514145,349,167.285
F,4,2348139,sinestep5.wav,None,1000,18,2516145,347,169.285
F,4,2348139,vowelstep5.wav,None,1000,18,2518145,359,171.285
F,4,2348139,vowelstep1.wav,None,1000,18,2520145,359,173.285
F,4,2348139,vowelstep1.wav,None,1000,18,2522145,337,175.285
F,4,2348139,sinestep7.wav,None,1000,18,2524145,338,177.285
F,4,2348139,vowelstep1.wav,None,1000,18,2526146,348,179.285
F,4,2348139,sinestep5.wav,None,1000,18,2528146,343,181.285
F,4,2348139,vowelstep7.wav,None,1000,18,2530145,347,183.285
F,4,2348139,sinestep1.wav,None,1000,18,2532145,356,185.285
F,4,2348139,vowelstep7.wav,None,1000,18,2534145,327,187.285
F,4,2348139,sinestep5.wav,None,1000,18,2536145,336,189.285
F,4,2348139,vowelstep5.wav,None,1000,18,2538145,337,191.285
F,4,2348139,silence.wav,None,1000,18,2540145,347,193.285
F,4,2348139,sinestep7.wav,None,1000,18,2542145,348,195.285
F,4,2348139,vowelstep5.wav,None,1000,18,2544146,345,197.285
F,4,2348139,vowelstep7.wav,None,1000,18,2546146,347,199.285
F,4,2348139,silence.wav,None,1000,18,2548146,357,201.285
F,4,2348139,vowelstep1.wav,None,1000,18,2550146,336,203.285
F,4,2348139,vowelstep7.wav,None,1000,18,2552145,336,205.285
F,4,2348139,vowelstep7.wav,None,1000,18,2554145,336,207.285
F,4,2348139,vowelstep3.wav,None,1000,18,2556145,345,209.285
F,4,2348139,vowelstep3.wav,None,1000,18,2558145,346,211.285
F,4,2348139,silence.wav,None,1000,18,2560145,346,213.285
F,4,2348139,sinestep7.wav,None,1000,18,2562146,326,215.285
F,4,2348139,sinestep1.wav,None,1000,18,2564146,334,217.285
F,4,2348139,silence.wav,None,1000,18,2566146,335,219.285
F,4,2348139,vowelstep1.wav,None,1000,18,2568146,334,221.285
F,4,2348139,sinestep5_catch.wav,1,467,18,2570146,345,223.285
F,4,2348139,sinestep1.wav,None,1000,18,2572146,877,225.285
F,4,2348139,silence.wav,None,1000,18,2574146,344,227.285
F,4,2348139,sinestep7.wav,None,1000,18,2576146,354,229.285
F,4,2348139,sinestep7.wav,None,1000,18,2578145,335,231.285
F,4,2348139,silence.wav,None,1000,18,2580146,334,233.285
F,4,2348139,vowelstep5.wav,None,1000,18,2582146,334,235.285
F,4,2348139,sinestep7.wav,None,1000,18,2584146,343,237.285
F,4,2348139,sinestep5.wav,None,1000,18,2586146,343,239.285
F,4,2348139,sinestep5.wav,None,1000,18,2588146,354,241.285
F,4,2348139,silence.wav,None,1000,18,2590146,354,243.285
F,4,2348139,vowelstep3.wav,None,1000,18,2592146,333,245.285
F,4,2348139,vowelstep3.wav,None,1000,18,2594146,334,247.285
F,4,2348139,silence.wav,None,1000,18,2596147,335,249.285
F,4,2348139,sinestep1.wav,None,1000,18,2598147,343,251.285
F,4,2348139,sinestep1.wav,None,1000,18,2600147,343,253.285
F,4,2348139,vowelstep5.wav,None,1000,18,2602146,343,255.285
F,4,2348139,silence.wav,None,1000,18,2604146,353,257.285
F,4,2348139,sinestep5.wav,None,1000,18,2606146,333,259.285
F,4,2348139,sinestep5.wav,None,1000,18,2608146,333,261.285
F,4,2348139,sinestep5.wav,None,1000,18,2610146,332,263.285
F,4,2348139,sinestep7.wav,None,1000,18,2612146,342,265.285
F,4,2348139,sinestep7_catch.wav,1,272,18,2614147,342,267.285
F,4,2348139,sinestep7_catch.wav,1,187,18,2616147,1068,269.285
F,4,2348139,sinestep1.wav,None,1000,18,2618147,1154,271.285
F,4,2348139,vowelstep7.wav,None,1000,18,2620147,331,273.285
F,4,2348139,sinestep3.wav,None,1000,18,2622147,332,275.285
F,4,2348139,sinestep3.wav,None,1000,18,2624147,331,277.285
F,4,2348139,silence.wav,None,1000,18,2626146,341,279.285
F,4,2348139,sinestep5_catch.wav,1,244,18,2628146,341,281.285
F,4,2348139,sinestep5.wav,None,1000,18,2630146,1097,283.285
F,4,2348139,silence.wav,None,1000,18,2632147,351,285.285
F,4,2348139,vowelstep5.wav,None,1000,18,2634147,321,287.285
F,4,2348139,silence.wav,None,1000,18,2636147,330,289.285
F,4,2348139,sinestep1.wav,None,1000,18,2638147,331,291.285
F,4,2348139,sinestep3.wav,None,1000,18,2640147,341,293.285
F,4,2348139,vowelstep3.wav,None,1000,18,2642147,340,295.285
F,4,2348139,silence.wav,None,1000,18,2644147,341,297.285
F,4,2348139,sinestep5.wav,None,1000,18,2646147,341,299.285
F,4,2348139,vowelstep5.wav,None,1000,18,2648147,330,301.285
F,4,2348139,vowelstep5.wav,None,1000,18,2650147,329,303.285
F,4,2348139,vowelstep1.wav,None,1000,18,2652147,328,305.285
F,4,2348139,sinestep3.wav,None,1000,18,2654147,340,307.285
F,4,2348139,silence.wav,None,1000,18,2656147,339,309.285
F,4,2348139,sinestep3_catch.wav,1,262,18,2658147,339,311.285
F,4,2348139,vowelstep1.wav,None,1000,18,2660147,1087,313.285
F,4,2348139,vowelstep7.wav,None,1000,18,2662147,329,315.285
F,4,2348139,vowelstep7.wav,None,1000,18,2664147,328,317.285
F,4,2348139,vowelstep1.wav,None,1000,18,2666148,329,319.285
G,5,2732932,vowelstep3.wav,None,1000,18,2732948,0,1.285
G,5,2732932,vowelstep3.wav,None,1000,18,2734948,329,3.285
G,5,2732932,vowelstep7.wav,None,1000,18,2736949,329,5.285
G,5,2732932,vowelstep3.wav,None,1000,18,2738949,328,7.285
G,5,2732932,sinestep5.wav,None,1000,18,2740949,338,9.285
G,5,2732932,sinestep1_catch.wav,1,356,18,2742949,337,11.285
G,5,2732932,silence.wav,None,1000,18,2744949,978,13.285
G,5,2732932,silence.wav,None,1000,18,2746948,348,15.285
G,5,2732932,vowelstep7.wav,None,1000,18,2748948,327,17.285
G,5,2732932,vowelstep1.wav,None,1000,18,2750948,328,19.285
G,5,2732932,silence.wav,None,1000,18,2752948,327,21.285
G,5,2732932,sinestep1.wav,None,1000,18,2754949,336,23.285
G,5,2732932,vowelstep7.wav,None,1000,18,2756949,336,25.285
G,5,2732932,sinestep5.wav,None,1000,18,2758949,336,27.285
G,5,2732932,sinestep5.wav,None,1000,18,2760949,346,29.285
G,5,2732932,sinestep3.wav,None,1000,18,2762949,324,31.285
G,5,2732932,vowelstep3.wav,None,1000,18,2764949,324,33.285
G,5,2732932,silence.wav,None,1000,18,2766949,327,35.285
G,5,2732932,vowelstep1.wav,None,1000,18,2768949,337,37.285
G,5,2732932,sinestep7.wav,None,1000,18,2770949,337,39.285
G,5,2732932,vowelstep5.wav,None,1000,18,2772949,315,41.285
G,5,2732932,vowelstep3.wav,None,1000,18,2774949,339,43.285
G,5,2732932,sinestep1.wav,None,1000,18,2776949,316,45.285
G,5,2732932,sinestep7.wav,None,1000,18,2778949,326,47.285
G,5,2732932,sinestep1.wav,None,1000,18,2780949,326,49.285
G,5,2732932,sinestep5.wav,None,1000,18,2782949,335,51.285
G,5,2732932,vowelstep1.wav,None,1000,18,2784949,335,53.285
G,5,2732932,silence.wav,None,1000,18,2786949,331,55.285
G,5,2732932,sinestep5.wav,None,1000,18,2788950,336,57.285
G,5,2732932,vowelstep1.wav,None,1000,18,2790950,323,59.285
G,5,2732932,vowelstep3.wav,None,1000,18,2792950,327,61.285
G,5,2732932,sinestep3.wav,None,1000,18,2794950,326,63.285
G,5,2732932,sinestep1.wav,None,1000,18,2796949,337,65.285
G,5,2732932,vowelstep5.wav,None,1000,18,2798949,336,67.285
G,5,2732932,vowelstep3.wav,None,1000,18,2800949,337,69.285
G,5,2732932,vowelstep5.wav,None,1000,18,2802949,347,71.285
G,5,2732932,vowelstep7.wav,None,1000,18,2804949,346,73.285
G,5,2732932,vowelstep5.wav,None,1000,18,2806950,327,75.285
G,5,2732932,vowelstep5.wav,None,1000,18,2808950,326,77.285
G,5,2732932,sinestep3.wav,None,1000,18,2810950,335,79.285
G,5,2732932,sinestep3_catch.wav,1,366,18,2812950,336,81.285
G,5,2732932,sinestep5_catch.wav,1,96,18,2814950,969,83.285
G,5,2732932,sinestep7.wav,None,1000,18,2816950,1239,85.285
G,5,2732932,sinestep7_catch.wav,1,139,18,2818950,315,87.285
G,5,2732932,sinestep7.wav,None,1000,18,2820949,1185,89.285
G,5,2732932,vowelstep1.wav,None,1000,18,2822949,326,91.285
G,5,2732932,vowelstep7.wav,None,1000,18,2824950,324,93.285
G,5,2732932,vowelstep3.wav,None,1000,18,2826950,330,95.285
G,5,2732932,sinestep3.wav,None,1000,18,2828950,334,97.285
G,5,2732932,sinestep1.wav,None,1000,18,2830950,334,99.285
G,5,2732932,sinestep1.wav,None,1000,18,2832950,345,101.285
G,5,2732932,sinestep5.wav,None,1000,18,2834950,324,103.285
G,5,2732932,vowelstep7.wav,None,1000,18,2836950,324,105.285
G,5,2732932,silence.wav,None,1000,18,2838950,325,107.285
G,5,2732932,sinestep3.wav,None,1000,18,2840951,334,109.285
G,5,2732932,vowelstep1.wav,None,1000,18,2842951,330,111.285
G,5,2732932,sinestep3.wav,None,1000,18,2844950,331,113.285
G,5,2732932,sinestep3.wav,None,1000,18,2846950,310,115.285
G,5,2732932,sinestep7.wav,None,1000,18,2848950,322,117.285
G,5,2732932,silence.wav,None,1000,18,2850950,321,119.285
G,5,2732932,vowelstep5.wav,None,1000,18,2852950,321,121.285
G,5,2732932,sinestep1_catch.wav,1,199,18,2854950,332,123.285
G,5,2732932,silence.wav,None,1000,18,2856950,1132,125.285
G,5,2732932,sinestep5.wav,None,1000,18,2858951,333,127.285
G,5,2732932,sinestep7.wav,None,1000,18,2860951,341,129.285
G,5,2732932,sinestep3.wav,None,1000,18,2862951,320,131.285
G,5,2732932,sinestep3.wav,None,1000,18,2864951,321,133.285
G,5,2732932,vowelstep5.wav,None,1000,18,2866951,321,135.285
G,5,2732932,sinestep3.wav,None,1000,18,2868950,331,137.285
G,5,2732932,sinestep3_catch.wav,1,231,18,2870950,331,139.285
G,5,2732932,vowelstep1.wav,None,1000,18,2872950,1099,141.285
G,5,2732932,vowelstep1.wav,None,1000,18,2874950,342,143.285
G,5,2732932,sinestep5.wav,None,1000,18,2876951,320,145.285
G,5,2732932,silence.wav,None,1000,18,2878951,319,147.285
G,5,2732932,sinestep3.wav,None,1000,18,2880951,319,149.285
G,5,2732932,silence.wav,None,1000,18,2882951,329,151.285
G,5,2732932,vowelstep3.wav,None,1000,18,2884951,330,153.285
G,5,2732932,sinestep5.wav,None,1000,18,2886951,329,155.285
G,5,2732932,vowelstep7.wav,None,1000,18,2888951,339,157.285
G,5,2732932,silence.wav,None,1000,18,2890951,319,159.285
G,5,2732932,sinestep5_catch.wav,1,173,18,2892950,319,161.285
G,5,2732932,vowelstep5.wav,None,1000,18,2894951,1144,163.285
G,5,2732932,silence.wav,None,1000,18,2896951,329,165.285
G,5,2732932,vowelstep7.wav,None,1000,18,2898951,328,167.285
G,5,2732932,vowelstep1.wav,None,1000,18,2900951,329,169.285
G,5,2732932,vowelstep1.wav,None,1000,18,2902951,329,171.285
G,5,2732932,vowelstep1.wav,None,1000,18,2904951,338,173.285
G,5,2732932,sinestep5.wav,None,1000,18,2906951,319,175.285
G,5,2732932,vowelstep3.wav,None,1000,18,2908951,318,177.285
G,5,2732932,sinestep1.wav,None,1000,18,2910952,317,179.285
G,5,2732932,vowelstep1.wav,None,1000,18,2912952,327,181.285
G,5,2732932,sinestep1.wav,None,1000,18,2914952,327,183.285
G,5,2732932,sinestep7.wav,None,1000,18,2916951,337,185.285
G,5,2732932,sinestep7.wav,None,1000,18,2918935,308,187.285
G,5,2732932,sinestep3.wav,None,1000,18,2920935,338,189.285
G,5,2732932,sinestep5.wav,None,1000,18,2922951,338,191.285
G,5,2732932,silence.wav,None,1000,18,2924951,327,193.285
G,5,2732932,sinestep7_catch.wav,1,82,18,2926951,326,195.285
G,5,2732932,vowelstep7_catch.wav,1,208,18,2928952,1245,197.285
G,5,2732932,sinestep7.wav,None,1000,18,2930952,1117,199.285
G,5,2732932,silence.wav,None,1000,18,2932952,316,201.285
G,5,2732932,sinestep7.wav,None,1000,18,2934935,318,203.285
G,5,2732932,sinestep3.wav,None,1000,18,2936935,337,205.285
G,5,2732932,vowelstep7.wav,None,1000,18,2938935,347,207.285
G,5,2732932,sinestep1.wav,None,1000,18,2940952,347,209.285
G,5,2732932,silence.wav,None,1000,18,2942951,326,211.285
G,5,2732932,silence.wav,None,1000,18,2944951,336,213.285
G,5,2732932,vowelstep7.wav,None,1000,18,2946936,336,215.285
G,5,2732932,vowelstep5.wav,None,1000,18,2948952,332,217.285
G,5,2732932,sinestep7.wav,None,1000,18,2950935,336,219.285
G,5,2732932,vowelstep5.wav,None,1000,18,2952935,345,221.285
G,5,2732932,vowelstep5_catch.wav,1,235,18,2954935,345,223.285
G,5,2732932,vowelstep7.wav,None,1000,18,2956935,1110,225.285
G,5,2732932,silence.wav,None,1000,18,2958952,356,227.285
G,5,2732932,silence.wav,None,1000,18,2960952,335,229.285
G,5,2732932,sinestep1.wav,None,1000,18,2962952,336,231.285
G,5,2732932,silence.wav,None,1000,18,2964936,315,233.285
G,5,2732932,vowelstep7.wav,None,1000,18,2966936,345,235.285
G,5,2732932,vowelstep5.wav,None,1000,18,2968936,345,237.285
G,5,2732932,vowelstep3.wav,None,1000,18,2970936,346,239.285
G,5,2732932,vowelstep3_catch.wav,1,247,18,2972936,325,241.285
G,5,2732932,sinestep1.wav,None,1000,18,2974935,1087,243.285
G,5,2732932,silence.wav,None,1000,18,2976935,335,245.285
G,5,2732932,sinestep7.wav,None,1000,18,2978952,334,247.285
G,5,2732932,sinestep1.wav,None,1000,18,2980936,344,249.285
G,5,2732932,sinestep3.wav,None,1000,18,2982936,345,251.285
G,5,2732932,vowelstep3.wav,None,1000,18,2984936,344,253.285
G,5,2732932,vowelstep1_catch.wav,1,231,18,2986936,354,255.285
G,5,2732932,sinestep7.wav,None,1000,18,2988936,1102,257.285
G,5,2732932,silence.wav,None,1000,18,2990936,333,259.285
G,5,2732932,sinestep5.wav,None,1000,18,2992936,333,261.285
G,5,2732932,sinestep5.wav,None,1000,18,2994936,333,263.285
G,5,2732932,vowelstep5.wav,None,1000,18,2996952,344,265.285
G,5,2732932,sinestep5.wav,None,1000,18,2998936,323,267.285
G,5,2732932,sinestep7.wav,None,1000,18,3000936,353,269.285
G,5,2732932,silence.wav,None,1000,18,3002936,332,271.285
G,5,2732932,vowelstep7_catch.wav,1,260,18,3004936,332,273.285
G,5,2732932,vowelstep5.wav,None,1000,18,3006936,1071,275.285
G,5,2732932,silence.wav,None,1000,18,3008936,343,277.285
G,5,2732932,sinestep3.wav,None,1000,18,3010936,342,279.285
G,5,2732932,vowelstep5.wav,None,1000,18,3012936,342,281.285
G,5,2732932,silence.wav,None,1000,18,3014936,342,283.285
G,5,2732932,vowelstep1.wav,None,1000,18,3016937,332,285.285
G,5,2732932,sinestep1.wav,None,1000,18,3018937,331,287.285
G,5,2732932,vowelstep3.wav,None,1000,18,3020937,331,289.285
G,5,2732932,vowelstep7.wav,None,1000,18,3022936,331,291.285
G,5,2732932,vowelstep7.wav,None,1000,18,3024936,341,293.285
G,5,2732932,sinestep1.wav,None,1000,18,3026936,341,295.285
G,5,2732932,vowelstep5.wav,None,1000,18,3028936,352,297.285
G,5,2732932,silence.wav,None,1000,18,3030936,351,299.285
G,5,2732932,sinestep1.wav,None,1000,18,3032936,352,301.285
G,5,2732932,vowelstep7.wav,None,1000,18,3034937,350,303.285
G,5,2732932,vowelstep5_catch.wav,1,196,18,3036937,340,305.285
G,5,2732932,vowelstep3.wav,None,1000,18,3038937,1145,307.285
G,5,2732932,vowelstep3_catch.wav,1,266,18,3040937,340,309.285
G,5,2732932,sinestep7.wav,None,1000,18,3042937,1083,311.285
G,5,2732932,sinestep5.wav,None,1000,18,3044937,351,313.285
G,5,2732932,vowelstep1.wav,None,1000,18,3046936,330,315.285
G,5,2732932,vowelstep3.wav,None,1000,18,3048936,361,317.285
G,5,2732932,vowelstep1.wav,None,1000,18,3050937,339,319.285
A,6,3108014,sinestep5_catch.wav,1,363,18,3108021,0,1.285
A,6,3108014,vowelstep1.wav,None,1000,18,3110021,956,3.285
A,6,3108014,vowelstep3.wav,None,1000,18,3112021,349,5.285
A,6,3108014,sinestep1.wav,None,1000,18,3114021,328,7.285
A,6,3108014,sinestep5_catch.wav,1,172,18,3116021,338,9.285
A,6,3108014,sinestep7.wav,None,1000,18,3118021,1165,11.285
A,6,3108014,sinestep3.wav,None,1000,18,3120021,338,13.285
A,6,3108014,silence.wav,None,1000,18,3122022,337,15.285
A,6,3108014,vowelstep7.wav,None,1000,18,3124022,347,17.285
A,6,3108014,sinestep7.wav,None,1000,18,3126022,347,19.285
A,6,3108014,vowelstep5_catch.wav,1,177,18,3128021,347,21.285
A,6,3108014,sinestep7.wav,None,1000,18,3130021,1149,23.285
A,6,3108014,sinestep3.wav,None,1000,18,3132021,337,25.285
A,6,3108014,silence.wav,None,1000,18,3134021,337,27.285
A,6,3108014,sinestep3.wav,None,1000,18,3136021,337,29.285
A,6,3108014,sinestep5_catch.wav,1,141,18,3138022,347,31.285
A,6,3108014,sinestep1.wav,None,1000,18,3140022,1204,33.285
A,6,3108014,sinestep1.wav,None,1000,18,3142022,347,35.285
A,6,3108014,sinestep5.wav,None,1000,18,3144022,336,37.285
A,6,3108014,vowelstep3.wav,None,1000,18,3146022,336,39.285
A,6,3108014,vowelstep5.wav,None,1000,18,3148022,337,41.285
A,6,3108014,vowelstep3.wav,None,1000,18,3150022,336,43.285
A,6,3108014,vowelstep1.wav,None,1000,18,3152021,336,45.285
A,6,3108014,vowelstep3.wav,None,1000,18,3154021,347,47.285
A,6,3108014,sinestep3.wav,None,1000,18,3156022,346,49.285
A,6,3108014,sinestep7.wav,None,1000,18,3158022,355,51.285
A,6,3108014,sinestep5.wav,None,1000,18,3160022,334,53.285
A,6,3108014,vowelstep7_catch.wav,1,210,18,3162022,335,55.285
A,6,3108014,silence.wav,None,1000,18,3164022,1124,57.285
A,6,3108014,vowelstep3.wav,None,1000,18,3166022,345,59.285
A,6,3108014,vowelstep1.wav,None,1000,18,3168022,345,61.285
A,6,3108014,silence.wav,None,1000,18,3170022,345,63.285
A,6,3108014,sinestep3.wav,None,1000,18,3172022,354,65.285
A,6,3108014,sinestep7.wav,None,1000,18,3174023,335,67.285
A,6,3108014,sinestep5.wav,None,1000,18,3176022,335,69.285
A,6,3108014,sinestep5.wav,None,1000,18,3178022,334,71.285
A,6,3108014,sinestep7.wav,None,1000,18,3180022,333,73.285
A,6,3108014,sinestep1.wav,None,1000,18,3182022,344,75.285
A,6,3108014,sinestep5.wav,None,1000,18,3184022,344,77.285
A,6,3108014,vowelstep1.wav,None,1000,18,3186022,354,79.285
A,6,3108014,sinestep1.wav,None,1000,18,3188022,333,81.285
A,6,3108014,vowelstep5.wav,None,1000,18,3190022,334,83.285
A,6,3108014,sinestep1.wav,None,1000,18,3192023,332,85.285
A,6,3108014,silence.wav,None,1000,18,3194023,333,87.285
A,6,3108014,vowelstep1.wav,None,1000,18,3196023,342,89.285
A,6,3108014,sinestep3.wav,None,1000,18,3198023,342,91.285
A,6,3108014,vowelstep5.wav,None,1000,18,3200023,353,93.285
A,6,3108014,vowelstep5.wav,None,1000,18,3202022,323,95.285
A,6,3108014,vowelstep5.wav,None,1000,18,3204022,333,97.285
A,6,3108014,vowelstep7.wav,None,1000,18,3206022,333,99.285
A,6,3108014,vowelstep3.wav,None,1000,18,3208023,342,101.285
A,6,3108014,sinestep1.wav,None,1000,18,3210023,342,103.285
A,6,3108014,sinestep1.wav,None,1000,18,3212023,341,105.285
A,6,3108014,vowelstep7.wav,None,1000,18,3214023,352,107.285
A,6,3108014,vowelstep1.wav,None,1000,18,3216023,322,109.285
A,6,3108014,vowelstep7.wav,None,1000,18,3218023,331,111.285
A,6,3108014,silence.wav,None,1000,18,3220023,331,113.285
A,6,3108014,sinestep1.wav,None,1000,18,3222023,342,115.285
A,6,3108014,vowelstep1.wav,None,1000,18,3224023,341,117.285
A,6,3108014,silence.wav,None,1000,18,3226023,340,119.285
A,6,3108014,vowelstep1.wav,None,1000,18,3228023,340,121.285
A,6,3108014,vowelstep3.wav,None,1000,18,3230023,321,123.285
A,6,3108014,vowelstep1.wav,None,1000,18,3232023,331,125.285
A,6,3108014,sinestep7.wav,None,1000,18,3234023,330,127.285
A,6,3108014,silence.wav,None,1000,18,3236023,340,129.285
A,6,3108014,vowelstep1.wav,None,1000,18,3238023,340,131.285
A,6,3108014,silence.wav,None,1000,18,3240023,341,133.285
A,6,3108014,sinestep7.wav,None,1000,18,3242023,340,135.285
A,6,3108014,vowelstep5.wav,None,1000,18,3244024,330,137.285
A,6,3108014,sinestep7.wav,None,1000,18,3246024,330,139.285
A,6,3108014,sinestep3.wav,None,1000,18,3248024,329,141.285
A,6,3108014,vowelstep5.wav,None,1000,18,3250023,330,143.285
A,6,3108014,silence.wav,None,1000,18,3252023,339,145.285
A,6,3108014,sinestep3.wav,None,1000,18,3254023,340,147.285
A,6,3108014,sinestep5.wav,None,1000,18,3256023,340,149.285
A,6,3108014,sinestep3.wav,None,1000,18,3258023,349,151.285
A,6,3108014,vowelstep3.wav,None,1000,18,3260023,328,153.285
A,6,3108014,sinestep3.wav,None,1000,18,3262024,329,155.285
A,6,3108014,vowelstep7_catch.wav,1,146,18,3264024,328,157.285
A,6,3108014,vowelstep7.wav,None,1000,18,3266024,1191,159.285
A,6,3108014,vowelstep5.wav,None,1000,18,3268024,338,161.285
A,6,3108014,sinestep5.wav,None,1000,18,3270024,339,163.285
A,6,3108014,silence.wav,None,1000,18,3272024,319,165.285
A,6,3108014,sinestep5.wav,None,1000,18,3274023,328,167.285
A,6,3108014,vowelstep5_catch.wav,1,169,18,3276023,328,169.285
A,6,3108014,silence.wav,None,1000,18,3278024,1159,171.285
A,6,3108014,sinestep7.wav,None,1000,18,3280024,337,173.285
A,6,3108014,sinestep5.wav,None,1000,18,3282024,337,175.285
A,6,3108014,sinestep7.wav,None,1000,18,3284024,337,177.285
A,6,3108014,vowelstep3.wav,None,1000,18,3286024,347,179.285
A,6,3108014,sinestep5.wav,None,1000,18,3288024,327,181.285
A,6,3108014,vowelstep1.wav,None,1000,18,3290024,324,183.285
A,6,3108014,vowelstep5.wav,None,1000,18,3292024,329,185.285
A,6,3108014,sinestep5.wav,None,1000,18,3294024,336,187.285
A,6,3108014,vowelstep1.wav,None,1000,18,3296025,337,189.285
A,6,3108014,silence.wav,None,1000,18,3298024,336,191.285
A,6,3108014,sinestep1.wav,None,1000,18,3300024,316,193.285
A,6,3108014,vowelstep5.wav,None,1000,18,3302024,326,195.285
A,6,3108014,sinestep3.wav,None,1000,18,3304024,326,197.285
A,6,3108014,silence.wav,None,1000,18,3306024,326,199.285
A,6,3108014,vowelstep3.wav,None,1000,18,3308024,336,201.285
A,6,3108014,vowelstep3_catch.wav,1,231,18,3310024,337,203.285
A,6,3108014,vowelstep5.wav,None,1000,18,3312024,1105,205.285
A,6,3108014,vowelstep1_catch.wav,1,80,18,3314025,336,207.285
A,6,3108014,silence.wav,None,1000,18,3316025,1244,209.285
A,6,3108014,sinestep3.wav,None,1000,18,3318025,325,211.285
A,6,3108014,vowelstep5.wav,None,1000,18,3320025,325,213.285
A,6,3108014,silence.wav,None,1000,18,3322024,336,215.285
A,6,3108014,sinestep5.wav,None,1000,18,3324024,335,217.285
A,6,3108014,vowelstep7.wav,None,1000,18,3326024,335,219.285
A,6,3108014,silence.wav,None,1000,18,3328024,345,221.285
A,6,3108014,vowelstep3.wav,None,1000,18,3330024,325,223.285
A,6,3108014,sinestep7.wav,None,1000,18,3332025,324,225.285
A,6,3108014,silence.wav,None,1000,18,3334025,324,227.285
A,6,3108014,vowelstep3.wav,None,1000,18,3336025,334,229.285
A,6,3108014,vowelstep5.wav,None,1000,18,3338025,334,231.285
A,6,3108014,vowelstep7.wav,None,1000,18,3340025,334,233.285
A,6,3108014,vowelstep3.wav,None,1000,18,3342025,334,235.285
A,6,3108014,vowelstep5.wav,None,1000,18,3344025,313,237.285
A,6,3108014,sinestep1_catch.wav,1,222,18,3346025,323,239.285
A,6,3108014,sinestep3.wav,None,1000,18,3348025,1122,241.285
A,6,3108014,sinestep1.wav,None,1000,18,3350025,351,243.285
A,6,3108014,sinestep3_catch.wav,1,115,18,3352025,333,245.285
A,6,3108014,sinestep7.wav,None,1000,18,3354025,1214,247.285
A,6,3108014,vowelstep1.wav,None,1000,18,3356025,334,249.285
A,6,3108014,sinestep3.wav,None,1000,18,3358025,342,251.285
A,6,3108014,vowelstep7.wav,None,1000,18,3360025,322,253.285
A,6,3108014,silence.wav,None,1000,18,3362025,323,255.285
A,6,3108014,sinestep1.wav,None,1000,18,3364025,323,257.285
A,6,3108014,silence.wav,None,1000,18,3366026,333,259.285
A,6,3108014,vowelstep5.wav,None,1000,18,3368026,332,261.285
A,6,3108014,sinestep5_catch.wav,1,143,18,3370026,332,263.285
A,6,3108014,vowelstep7.wav,None,1000,18,3372025,1198,265.285
A,6,3108014,sinestep3.wav,None,1000,18,3374025,342,267.285
A,6,3108014,vowelstep1.wav,None,1000,18,3376025,342,269.285
A,6,3108014,vowelstep3.wav,None,1000,18,3378025,352,271.285
A,6,3108014,sinestep7_catch.wav,1,134,18,3380025,331,273.285
A,6,3108014,silence.wav,None,1000,18,3382025,1193,275.285
A,6,3108014,vowelstep7.wav,None,1000,18,3384026,332,277.285
A,6,3108014,sinestep7.wav,None,1000,18,3386026,340,279.285
A,6,3108014,sinestep1.wav,None,1000,18,3388026,341,281.285
A,6,3108014,vowelstep7.wav,None,1000,18,3390026,351,283.285
A,6,3108014,sinestep5.wav,None,1000,18,3392026,350,285.285
A,6,3108014,sinestep5.wav,None,1000,18,3394026,329,287.285
A,6,3108014,sinestep7_catch.wav,1,162,18,3396025,330,289.285
A,6,3108014,sinestep5.wav,None,1000,18,3398025,1178,291.285
A,6,3108014,silence.wav,None,1000,18,3400025,341,293.285
A,6,3108014,vowelstep3.wav,None,1000,18,3402026,339,295.285
A,6,3108014,silence.wav,None,1000,18,3404026,333,297.285
A,6,3108014,vowelstep1.wav,None,1000,18,3406026,350,299.285
A,6,3108014,sinestep1.wav,None,1000,18,3408026,330,301.285
A,6,3108014,sinestep7.wav,None,1000,18,3410026,330,303.285
A,6,3108014,vowelstep7.wav,None,1000,18,3412026,329,305.285
A,6,3108014,sinestep1_catch.wav,1,170,18,3414026,339,307.285
A,6,3108014,silence.wav,None,1000,18,3416026,1168,309.285
A,6,3108014,silence.wav,None,1000,18,3418027,334,311.285
A,6,3108014,vowelstep7.wav,None,1000,18,3420026,348,313.285
A,6,3108014,sinestep1.wav,None,1000,18,3422026,316,315.285
A,6,3108014,vowelstep7.wav,None,1000,18,3424026,328,317.285
A,6,3108014,vowelstep7.wav,None,1000,18,3426026,327,319.285
B,7,3484058,vowelstep5.wav,None,1000,18,3484077,0,1.285
B,7,3484058,silence.wav,None,1000,18,3486077,328,3.285
B,7,3484058,sinestep7.wav,None,1000,18,3488078,327,5.285
B,7,3484058,vowelstep1_catch.wav,1,343,18,3490078,307,7.285
B,7,3484058,vowelstep7.wav,None,1000,18,3492077,974,9.285
B,7,3484058,vowelstep3.wav,None,1000,18,3494061,317,11.285
B,7,3484058,vowelstep7.wav,None,1000,18,3496061,346,13.285
B,7,3484058,vowelstep5.wav,None,1000,18,3498077,347,15.285
B,7,3484058,vowelstep7.wav,None,1000,18,3500077,327,17.285
B,7,3484058,vowelstep3.wav,None,1000,18,3502077,328,19.285
B,7,3484058,silence.wav,None,1000,18,3504077,328,21.285
B,7,3484058,silence.wav,None,1000,18,3506078,318,23.285
B,7,3484058,sinestep5.wav,None,1000,18,3508078,317,25.285
B,7,3484058,sinestep1.wav,None,1000,18,3510061,316,27.285
B,7,3484058,vowelstep7.wav,None,1000,18,3512061,346,29.285
B,7,3484058,sinestep5.wav,None,1000,18,3514061,346,31.285
B,7,3484058,vowelstep1.wav,None,1000,18,3516078,356,33.285
B,7,3484058,vowelstep7.wav,None,1000,18,3518077,306,35.285
B,7,3484058,vowelstep3.wav,None,1000,18,3520077,316,37.285
B,7,3484058,sinestep5.wav,None,1000,18,3522077,316,39.285
B,7,3484058,vowelstep1.wav,None,1000,18,3524078,314,41.285
B,7,3484058,sinestep3.wav,None,1000,18,3526061,325,43.285
B,7,3484058,vowelstep5.wav,None,1000,18,3528061,345,45.285
B,7,3484058,vowelstep7.wav,None,1000,18,3530061,355,47.285
B,7,3484058,vowelstep3.wav,None,1000,18,3532061,334,49.285
B,7,3484058,sinestep7.wav,None,1000,18,3534078,335,51.285
B,7,3484058,sinestep3.wav,None,1000,18,3536078,315,53.285
B,7,3484058,sinestep1.wav,None,1000,18,3538078,315,55.285
B,7,3484058,sinestep1.wav,None,1000,18,3540062,325,57.285
B,7,3484058,sinestep5.wav,None,1000,18,3542062,344,59.285
B,7,3484058,vowelstep5.wav,None,1000,18,3544062,354,61.285
B,7,3484058,vowelstep3_catch.wav,1,248,18,3546062,334,63.285
B,7,3484058,vowelstep7.wav,None,1000,18,3548062,1086,65.285
B,7,3484058,sinestep1.wav,None,1000,18,3550061,334,67.285
B,7,3484058,vowelstep5.wav,None,1000,18,3552061,343,69.285
B,7,3484058,vowelstep5_catch.wav,1,215,18,3554078,344,71.285
B,7,3484058,vowelstep7.wav,None,1000,18,3556078,1108,73.285
B,7,3484058,sinestep3.wav,None,1000,18,3558062,324,75.285
B,7,3484058,vowelstep7_catch.wav,1,195,18,3560062,333,77.285
B,7,3484058,sinestep5.wav,None,1000,18,3562062,1138,79.285
B,7,3484058,vowelstep5.wav,None,1000,18,3564062,334,81.285
B,7,3484058,silence.wav,None,1000,18,3566062,333,83.285
B,7,3484058,silence.wav,None,1000,18,3568062,344,85.285
B,7,3484058,vowelstep3.wav,None,1000,18,3570062,343,87.285
B,7,3484058,silence.wav,None,1000,18,3572078,353,89.285
B,7,3484058,sinestep1.wav,None,1000,18,3574061,323,91.285
B,7,3484058,sinestep1.wav,None,1000,18,3576062,333,93.285
B,7,3484058,sinestep5.wav,None,1000,18,3578062,332,95.285
B,7,3484058,vowelstep7.wav,None,1000,18,3580062,342,97.285
B,7,3484058,sinestep5.wav,None,1000,18,3582062,342,99.285
B,7,3484058,sinestep5.wav,None,1000,18,3584062,342,101.285
B,7,3484058,silence.wav,None,1000,18,3586062,342,103.285
B,7,3484058,vowelstep1.wav,None,1000,18,3588062,332,105.285
B,7,3484058,silence.wav,None,1000,18,3590062,332,107.285
B,7,3484058,sinestep1.wav,None,1000,18,3592062,332,109.285
B,7,3484058,vowelstep7.wav,None,1000,18,3594063,330,111.285
B,7,3484058,silence.wav,None,1000,18,3596063,342,113.285
B,7,3484058,sinestep1.wav,None,1000,18,3598062,341,115.285
B,7,3484058,vowelstep3.wav,None,1000,18,3600062,351,117.285
B,7,3484058,vowelstep5.wav,None,1000,18,3602062,317,119.285
B,7,3484058,silence.wav,None,1000,18,3604062,331,121.285
B,7,3484058,sinestep3.wav,None,1000,18,3606062,330,123.285
B,7,3484058,sinestep5.wav,None,1000,18,3608062,332,125.285
B,7,3484058,silence.wav,None,1000,18,3610063,341,127.285
B,7,3484058,vowelstep5.wav,None,1000,18,3612063,340,129.285
B,7,3484058,sinestep3.wav,None,1000,18,3614063,340,131.285
B,7,3484058,sinestep5.wav,None,1000,18,3616063,350,133.285
B,7,3484058,sinestep5.wav,None,1000,18,3618063,330,135.285
B,7,3484058,sinestep7.wav,None,1000,18,3620063,330,137.285
B,7,3484058,sinestep7.wav,None,1000,18,3622062,329,139.285
B,7,3484058,vowelstep5.wav,None,1000,18,3624062,339,141.285
B,7,3484058,sinestep1.wav,None,1000,18,3626062,340,143.285
B,7,3484058,vowelstep7.wav,None,1000,18,3628063,340,145.285
B,7,3484058,sinestep7.wav,None,1000,18,3630063,349,147.285
B,7,3484058,vowelstep5.wav,None,1000,18,3632063,328,149.285
B,7,3484058,vowelstep1.wav,None,1000,18,3634063,329,151.285
B,7,3484058,sinestep3.wav,None,1000,18,3636063,329,153.285
B,7,3484058,silence.wav,None,1000,18,3638063,339,155.285
B,7,3484058,silence.wav,None,1000,18,3640063,339,157.285
B,7,3484058,sinestep7_catch.wav,1,370,18,3642063,339,159.285
B,7,3484058,vowelstep5.wav,None,1000,18,3644063,978,161.285
B,7,3484058,sinestep7.wav,None,1000,18,3646063,328,163.285
B,7,3484058,vowelstep5.wav,None,1000,18,3648063,326,165.285
B,7,3484058,vowelstep3.wav,None,1000,18,3650063,328,167.285
B,7,3484058,silence.wav,None,1000,18,3652063,338,169.285
B,7,3484058,sinestep3.wav,None,1000,18,3654063,338,171.285
B,7,3484058,sinestep7_catch.wav,1,251,18,3656063,338,173.285
B,7,3484058,sinestep3.wav,None,1000,18,3658063,1086,175.285
B,7,3484058,sinestep5_catch.wav,1,391,18,3660063,327,177.285
B,7,3484058,vowelstep5.wav,None,1000,18,3662063,936,179.285
B,7,3484058,silence.wav,None,1000,18,3664064,326,181.285
B,7,3484058,sinestep7.wav,None,1000,18,3666064,323,183.285
B,7,3484058,silence.wav,None,1000,18,3668064,338,185.285
B,7,3484058,sinestep3.wav,None,1000,18,3670064,337,187.285
B,7,3484058,silence.wav,None,1000,18,3672063,316,189.285
B,7,3484058,vowelstep7.wav,None,1000,18,3674063,346,191.285
B,7,3484058,vowelstep3.wav,None,1000,18,3676063,346,193.285
B,7,3484058,vowelstep3.wav,None,1000,18,3678063,327,195.285
B,7,3484058,sinestep7.wav,None,1000,18,3680064,336,197.285
B,7,3484058,sinestep7.wav,None,1000,18,3682064,335,199.285
B,7,3484058,sinestep3.wav,None,1000,18,3684064,335,201.285
B,7,3484058,sinestep3_catch.wav,1,164,18,3686064,336,203.285
B,7,3484058,sinestep1.wav,None,1000,18,3688064,1181,205.285
B,7,3484058,sinestep1.wav,None,1000,18,3690064,345,207.285
B,7,3484058,sinestep3.wav,None,1000,18,3692064,356,209.285
B,7,3484058,silence.wav,None,1000,18,3694064,325,211.285
B,7,3484058,silence.wav,None,1000,18,3696063,335,213.285
B,7,3484058,sinestep5_catch.wav,1,228,18,3698064,336,215.285
B,7,3484058,sinestep7.wav,None,1000,18,3700064,1116,217.285
B,7,3484058,sinestep7.wav,None,1000,18,3702064,345,219.285
B,7,3484058,vowelstep3.wav,None,1000,18,3704064,344,221.285
B,7,3484058,sinestep1_catch.wav,1,212,18,3706064,354,223.285
B,7,3484058,vowelstep5.wav,None,1000,18,3708064,1121,225.285
B,7,3484058,sinestep1.wav,None,1000,18,3710064,334,227.285
B,7,3484058,vowelstep1.wav,None,1000,18,3712064,335,229.285
B,7,3484058,vowelstep1.wav,None,1000,18,3714064,335,231.285
B,7,3484058,sinestep5.wav,None,1000,18,3716065,343,233.285
B,7,3484058,silence.wav,None,1000,18,3718065,345,235.285
B,7,3484058,silence.wav,None,1000,18,3720064,343,237.285
B,7,3484058,vowelstep1.wav,None,1000,18,3722064,354,239.285
B,7,3484058,vowelstep1.wav,None,1000,18,3724064,333,241.285
B,7,3484058,silence.wav,None,1000,18,3726064,331,243.285
B,7,3484058,vowelstep1_catch.wav,1,241,18,3728064,332,245.285
B,7,3484058,sinestep7.wav,None,1000,18,3730064,1099,247.285
B,7,3484058,sinestep1.wav,None,1000,18,3732064,345,249.285
B,7,3484058,vowelstep1.wav,None,1000,18,3734065,342,251.285
B,7,3484058,vowelstep3.wav,None,1000,18,3736065,352,253.285
B,7,3484058,sinestep3.wav,None,1000,18,3738065,332,255.285
B,7,3484058,silence.wav,None,1000,18,3740065,332,257.285
B,7,3484058,vowelstep3.wav,None,1000,18,3742065,343,259.285
B,7,3484058,silence.wav,None,1000,18,3744064,344,261.285
B,7,3484058,vowelstep3.wav,None,1000,18,3746064,342,263.285
B,7,3484058,sinestep5.wav,None,1000,18,3748064,342,265.285
B,7,3484058,vowelstep3_catch.wav,1,405,18,3750065,330,267.285
B,7,3484058,sinestep3.wav,None,1000,18,3752065,926,269.285
B,7,3484058,sinestep1.wav,None,1000,18,3754065,332,271.285
B,7,3484058,vowelstep3.wav,None,1000,18,3756065,331,273.285
B,7,3484058,vowelstep1.wav,None,1000,18,3758065,339,275.285
B,7,3484058,vowelstep5_catch.wav,1,127,18,3760065,341,277.285
B,7,3484058,vowelstep1.wav,None,1000,18,3762065,1214,279.285
B,7,3484058,vowelstep5.wav,None,1000,18,3764065,351,281.285
B,7,3484058,sinestep7.wav,None,1000,18,3766065,331,283.285
B,7,3484058,vowelstep7.wav,None,1000,18,3768065,332,285.285
B,7,3484058,vowelstep1_catch.wav,1,152,18,3770065,330,287.285
B,7,3484058,sinestep1.wav,None,1000,18,3772065,1187,289.285
B,7,3484058,vowelstep1.wav,None,1000,18,3774065,340,291.285
B,7,3484058,sinestep5.wav,None,1000,18,3776065,340,293.285
B,7,3484058,vowelstep7.wav,None,1000,18,3778065,350,295.285
B,7,3484058,sinestep7.wav,None,1000,18,3780065,330,297.285
B,7,3484058,vowelstep7_catch.wav,1,172,18,3782065,331,299.285
B,7,3484058,sinestep3.wav,None,1000,18,3784065,1157,301.285
B,7,3484058,vowelstep3.wav,None,1000,18,3786066,340,303.285
B,7,3484058,sinestep5.wav,None,1000,18,3788066,338,305.285
B,7,3484058,vowelstep1.wav,None,1000,18,3790066,337,307.285
B,7,3484058,vowelstep7.wav,None,1000,18,3792066,345,309.285
B,7,3484058,vowelstep1.wav,None,1000,18,3794065,329,311.285
B,7,3484058,sinestep7.wav,None,1000,18,3796065,328,313.285
B,7,3484058,sinestep3.wav,None,1000,18,3798065,329,315.285
B,7,3484058,silence.wav,None,1000,18,3800065,329,317.285
B,7,3484058,vowelstep1.wav,None,1000,18,3802065,339,319.285
H,8,3862617,sinestep3.wav,None,1000,18,3862633,0,1.285
H,8,3862617,sinestep7.wav,None,1000,18,3864633,322,3.285
H,8,3862617,sinestep3.wav,None,1000,18,3866633,322,5.285
H,8,3862617,vowelstep3.wav,None,1000,18,3868633,322,7.285
H,8,3862617,vowelstep1.wav,None,1000,18,3870633,322,9.285
H,8,3862617,sinestep7.wav,None,1000,18,3872634,333,11.285
H,8,3862617,vowelstep3.wav,None,1000,18,3874634,332,13.285
H,8,3862617,silence.wav,None,1000,18,3876634,342,15.285
H,8,3862617,vowelstep1.wav,None,1000,18,3878634,312,17.285
H,8,3862617,sinestep5.wav,None,1000,18,3880634,322,19.285
H,8,3862617,sinestep7.wav,None,1000,18,3882633,321,21.285
H,8,3862617,vowelstep7.wav,None,1000,18,3884633,332,23.285
H,8,3862617,vowelstep1_catch.wav,1,369,18,3886633,332,25.285
H,8,3862617,sinestep5.wav,None,1000,18,3888633,965,27.285
H,8,3862617,vowelstep5.wav,None,1000,18,3890634,342,29.285
H,8,3862617,silence.wav,None,1000,18,3892634,320,31.285
H,8,3862617,vowelstep3_catch.wav,1,125,18,3894634,321,33.285
H,8,3862617,sinestep7.wav,None,1000,18,3896634,1196,35.285
H,8,3862617,sinestep5.wav,None,1000,18,3898634,320,37.285
H,8,3862617,silence.wav,None,1000,18,3900634,331,39.285
H,8,3862617,vowelstep3.wav,None,1000,18,3902634,331,41.285
H,8,3862617,vowelstep1.wav,None,1000,18,3904634,342,43.285
H,8,3862617,vowelstep1.wav,None,1000,18,3906633,311,45.285
H,8,3862617,vowelstep3.wav,None,1000,18,3908634,319,47.285
H,8,3862617,sinestep3.wav,None,1000,18,3910634,318,49.285
H,8,3862617,vowelstep1.wav,None,1000,18,3912634,330,51.285
H,8,3862617,sinestep7.wav,None,1000,18,3914634,330,53.285
H,8,3862617,vowelstep7.wav,None,1000,18,3916634,330,55.285
H,8,3862617,vowelstep5_catch.wav,1,111,18,3918634,340,57.285
H,8,3862617,vowelstep5.wav,None,1000,18,3920634,1199,59.285
H,8,3862617,vowelstep3.wav,None,1000,18,3922634,317,61.285
H,8,3862617,vowelstep7_catch.wav,1,119,18,3924635,318,63.285
H,8,3862617,sinestep3.wav,None,1000,18,3926635,1208,65.285
H,8,3862617,sinestep1.wav,None,1000,18,3928635,328,67.285
H,8,3862617,sinestep7.wav,None,1000,18,3930634,329,69.285
H,8,3862617,silence.wav,None,1000,18,3932634,329,71.285
H,8,3862617,vowelstep1.wav,None,1000,18,3934634,339,73.285
H,8,3862617,vowelstep7.wav,None,1000,18,3936634,318,75.285
H,8,3862617,sinestep7.wav,None,1000,18,3938634,318,77.285
H,8,3862617,sinestep1.wav,None,1000,18,3940634,319,79.285
H,8,3862617,sinestep7.wav,None,1000,18,3942635,328,81.285
H,8,3862617,sinestep1.wav,None,1000,18,3944635,329,83.285
H,8,3862617,vowelstep5.wav,None,1000,18,3946635,328,85.285
H,8,3862617,sinestep3.wav,None,1000,18,3948635,309,87.285
H,8,3862617,vowelstep5.wav,None,1000,18,3950635,316,89.285
H,8,3862617,silence.wav,None,1000,18,3952635,318,91.285
H,8,3862617,silence.wav,None,1000,18,3954634,319,93.285
H,8,3862617,sinestep5.wav,None,1000,18,3956634,328,95.285
H,8,3862617,sinestep3.wav,None,1000,18,3958634,328,97.285
H,8,3862617,sinestep7.wav,None,1000,18,3960635,328,99.285
H,8,3862617,sinestep7_catch.wav,1,198,18,3962635,335,101.285
H,8,3862617,silence.wav,None,1000,18,3964635,1119,103.285
H,8,3862617,sinestep3.wav,None,1000,18,3966635,317,105.285
H,8,3862617,silence.wav,None,1000,18,3968635,316,107.285
H,8,3862617,vowelstep1.wav,None,1000,18,3970635,327,109.285
H,8,3862617,vowelstep7.wav,None,1000,18,3972635,327,111.285
H,8,3862617,sinestep5.wav,None,1000,18,3974635,327,113.285
H,8,3862617,silence.wav,None,1000,18,3976635,337,115.285
H,8,3862617,vowelstep7.wav,None,1000,18,3978635,315,117.285
H,8,3862617,vowelstep3.wav,None,1000,18,3980635,311,119.285
H,8,3862617,sinestep5.wav,None,1000,18,3982635,326,121.285
H,8,3862617,sinestep1.wav,None,1000,18,3984635,326,123.285
H,8,3862617,vowelstep3.wav,None,1000,18,3986635,326,125.285
H,8,3862617,vowelstep3.wav,None,1000,18,3988635,326,127.285
H,8,3862617,vowelstep5.wav,None,1000,18,3990635,336,129.285
H,8,3862617,vowelstep1.wav,None,1000,18,3992635,316,131.285
H,8,3862617,vowelstep7.wav,None,1000,18,3994636,313,133.285
H,8,3862617,vowelstep3.wav,None,1000,18,3996636,315,135.285
H,8,3862617,vowelstep5.wav,None,1000,18,3998636,324,137.285
H,8,3862617,vowelstep5.wav,None,1000,18,4000636,325,139.285
H,8,3862617,sinestep7.wav,None,1000,18,4002635,325,141.285
H,8,3862617,vowelstep1.wav,None,1000,18,4004635,335,143.285
H,8,3862617,sinestep3.wav,None,1000,18,4006635,314,145.285
H,8,3862617,sinestep1.wav,None,1000,18,4008635,314,147.285
H,8,3862617,vowelstep1.wav,None,1000,18,4010635,315,149.285
H,8,3862617,sinestep5_catch.wav,1,265,18,4012636,312,151.285
H,8,3862617,sinestep7.wav,None,1000,18,4014636,1059,153.285
H,8,3862617,sinestep3_catch.wav,1,154,18,4016636,325,155.285
H,8,3862617,sinestep7.wav,None,1000,18,4018636,1179,157.285
H,8,3862617,sinestep5.wav,None,1000,18,4020636,314,159.285
H,8,3862617,silence.wav,None,1000,18,4022636,312,161.285
H,8,3862617,sinestep1_catch.wav,1,189,18,4024636,314,163.285
H,8,3862617,vowelstep7.wav,None,1000,18,4026636,1135,165.285
H,8,3862617,vowelstep7.wav,None,1000,18,4028635,324,167.285
H,8,3862617,sinestep7.wav,None,1000,18,4030636,324,169.285
H,8,3862617,sinestep3.wav,None,1000,18,4032636,321,171.285
H,8,3862617,sinestep5.wav,None,1000,18,4034636,313,173.285
H,8,3862617,vowelstep1_catch.wav,1,179,18,4036636,312,175.285
H,8,3862617,vowelstep1.wav,None,1000,18,4038636,1133,177.285
H,8,3862617,sinestep3.wav,None,1000,18,4040636,313,179.285
H,8,3862617,sinestep3.wav,None,1000,18,4042636,321,181.285
H,8,3862617,vowelstep5.wav,None,1000,18,4044636,321,183.285
H,8,3862617,sinestep1.wav,None,1000,18,4046636,334,185.285
H,8,3862617,sinestep1.wav,None,1000,18,4048620,302,187.285
H,8,3862617,vowelstep7.wav,None,1000,18,4050620,331,189.285
H,8,3862617,sinestep1.wav,None,1000,18,4052636,332,191.285
H,8,3862617,sinestep5.wav,None,1000,18,4054636,322,193.285
H,8,3862617,vowelstep3_catch.wav,1,253,18,4056636,322,195.285
H,8,3862617,sinestep1.wav,None,1000,18,4058636,1069,197.285
H,8,3862617,silence.wav,None,1000,18,4060636,321,199.285
H,8,3862617,vowelstep1.wav,None,1000,18,4062636,332,201.285
H,8,3862617,vowelstep5_catch.wav,1,242,18,4064620,311,203.285
H,8,3862617,sinestep5.wav,None,1000,18,4066637,1098,205.285
H,8,3862617,sinestep1.wav,None,1000,18,4068620,316,207.285
H,8,3862617,silence.wav,None,1000,18,4070620,337,209.285
H,8,3862617,sinestep3.wav,None,1000,18,4072637,347,211.285
H,8,3862617,silence.wav,None,1000,18,4074637,326,213.285
H,8,3862617,vowelstep7_catch.wav,1,190,18,4076636,327,215.285
H,8,3862617,vowelstep5.wav,None,1000,18,4078636,1115,217.285
H,8,3862617,sinestep7.wav,None,1000,18,4080620,315,219.285
H,8,3862617,silence.wav,None,1000,18,4082621,336,221.285
H,8,3862617,sinestep1.wav,None,1000,18,4084620,346,223.285
H,8,3862617,silence.wav,None,1000,18,4086620,346,225.285
H,8,3862617,silence.wav,None,1000,18,4088620,346,227.285
H,8,3862617,silence.wav,None,1000,18,4090637,355,229.285
H,8,3862617,silence.wav,None,1000,18,4092637,326,231.285
H,8,3862617,sinestep5.wav,None,1000,18,4094637,314,233.285
H,8,3862617,silence.wav,None,1000,18,4096620,314,235.285
H,8,3862617,vowelstep3.wav,None,1000,18,4098620,345,237.285
H,8,3862617,silence.wav,None,1000,18,4100621,345,239.285
H,8,3862617,silence.wav,None,1000,18,4102621,345,241.285
H,8,3862617,vowelstep1_catch.wav,1,193,18,4104621,345,243.285
H,8,3862617,vowelstep5.wav,None,1000,18,4106621,1132,245.285
H,8,3862617,vowelstep7.wav,None,1000,18,4108637,334,247.285
H,8,3862617,vowelstep3_catch.wav,1,374,18,4110637,311,249.285
H,8,3862617,vowelstep1.wav,None,1000,18,4112620,940,251.285
H,8,3862617,sinestep3.wav,None,1000,18,4114620,344,253.285
H,8,3862617,vowelstep5_catch.wav,1,130,18,4116620,344,255.285
H,8,3862617,vowelstep5.wav,None,1000,18,4118621,1213,257.285
H,8,3862617,silence.wav,None,1000,18,4120638,354,259.285
H,8,3862617,vowelstep7.wav,None,1000,18,4122621,301,261.285
H,8,3862617,sinestep5.wav,None,1000,18,4124621,334,263.285
H,8,3862617,vowelstep5.wav,None,1000,18,4126637,334,265.285
H,8,3862617,vowelstep7.wav,None,1000,18,4128621,313,267.285
H,8,3862617,vowelstep3.wav,None,1000,18,4130621,344,269.285
H,8,3862617,vowelstep3.wav,None,1000,18,4132620,344,271.285
H,8,3862617,silence.wav,None,1000,18,4134621,322,273.285
H,8,3862617,vowelstep3.wav,None,1000,18,4136621,331,275.285
H,8,3862617,sinestep1.wav,None,1000,18,4138621,332,277.285
H,8,3862617,silence.wav,None,1000,18,4140621,332,279.285
H,8,3862617,sinestep1.wav,None,1000,18,4142621,342,281.285
H,8,3862617,vowelstep3.wav,None,1000,18,4144621,343,283.285
H,8,3862617,silence.wav,None,1000,18,4146621,342,285.285
H,8,3862617,vowelstep5.wav,None,1000,18,4148621,352,287.285
H,8,3862617,vowelstep5.wav,None,1000,18,4150621,331,289.285
H,8,3862617,vowelstep1.wav,None,1000,18,4152622,331,291.285
H,8,3862617,sinestep5.wav,None,1000,18,4154622,331,293.285
H,8,3862617,vowelstep7.wav,None,1000,18,4156621,341,295.285
H,8,3862617,vowelstep1.wav,None,1000,18,4158621,341,297.285
H,8,3862617,vowelstep7.wav,None,1000,18,4160621,341,299.285
H,8,3862617,vowelstep3.wav,None,1000,18,4162621,319,301.285
H,8,3862617,sinestep1.wav,None,1000,18,4164621,332,303.285
H,8,3862617,sinestep5.wav,None,1000,18,4166621,331,305.285
H,8,3862617,vowelstep5.wav,None,1000,18,4168621,331,307.285
H,8,3862617,sinestep3.wav,None,1000,18,4170622,341,309.285
H,8,3862617,vowelstep7.wav,None,1000,18,4172622,337,311.285
H,8,3862617,sinestep7.wav,None,1000,18,4174622,340,313.285
H,8,3862617,sinestep5.wav,None,1000,18,4176622,348,315.285
H,8,3862617,sinestep3.wav,None,1000,18,4178622,330,317.285
H,8,3862617,sinestep1.wav,None,1000,18,4180621,330,319.285
I,9,4238213,vowelstep7.wav,None,1000,18,4238222,0,1.285
I,9,4238213,sinestep1_catch.wav,1,160,18,4240223,322,3.285
I,9,4238213,sinestep3.wav,None,1000,18,4242223,1160,5.285
I,9,4238213,silence.wav,None,1000,18,4244223,322,7.285
I,9,4238213,vowelstep7.wav,None,1000,18,4246223,332,9.285
I,9,4238213,sinestep3_catch.wav,1,64,18,4248223,332,11.285
I,9,4238213,vowelstep3.wav,None,1000,18,4250223,1267,13.285
I,9,4238213,vowelstep3.wav,None,1000,18,4252223,341,15.285
I,9,4238213,silence.wav,None,1000,18,4254222,321,17.285
I,9,4238213,vowelstep1.wav,None,1000,18,4256222,322,19.285
I,9,4238213,vowelstep5.wav,None,1000,18,4258223,321,21.285
I,9,4238213,vowelstep7.wav,None,1000,18,4260223,330,23.285
I,9,4238213,sinestep1.wav,None,1000,18,4262223,330,25.285
I,9,4238213,vowelstep1.wav,None,1000,18,4264223,330,27.285
I,9,4238213,sinestep5_catch.wav,1,119,18,4266223,311,29.285
I,9,4238213,sinestep5.wav,None,1000,18,4268223,1200,31.285
I,9,4238213,vowelstep1.wav,None,1000,18,4270223,319,33.285
I,9,4238213,sinestep7.wav,None,1000,18,4272223,320,35.285
I,9,4238213,vowelstep3.wav,None,1000,18,4274223,330,37.285
I,9,4238213,vowelstep1.wav,None,1000,18,4276224,329,39.285
I,9,4238213,vowelstep1.wav,None,1000,18,4278223,330,41.285
I,9,4238213,sinestep3.wav,None,1000,18,4280223,341,43.285
I,9,4238213,sinestep5.wav,None,1000,18,4282223,340,45.285
I,9,4238213,sinestep5.wav,None,1000,18,4284223,320,47.285
I,9,4238213,vowelstep3.wav,None,1000,18,4286223,320,49.285
I,9,4238213,silence.wav,None,1000,18,4288223,330,51.285
I,9,4238213,sinestep7_catch.wav,1,172,18,4290223,329,53.285
I,9,4238213,silence.wav,None,1000,18,4292224,1164,55.285
I,9,4238213,sinestep1.wav,None,1000,18,4294224,338,57.285
I,9,4238213,vowelstep1.wav,None,1000,18,4296224,337,59.285
I,9,4238213,sinestep1.wav,None,1000,18,4298224,338,61.285
I,9,4238213,sinestep1.wav,None,1000,18,4300224,348,63.285
I,9,4238213,vowelstep7.wav,None,1000,18,4302224,328,65.285
I,9,4238213,sinestep5.wav,None,1000,18,4304223,328,67.285
I,9,4238213,sinestep5_catch.wav,1,109,18,4306223,328,69.285
I,9,4238213,vowelstep7.wav,None,1000,18,4308223,1229,71.285
I,9,4238213,vowelstep5.wav,None,1000,18,4310224,338,73.285
I,9,4238213,sinestep3.wav,None,1000,18,4312224,338,75.285
I,9,4238213,vowelstep1.wav,None,1000,18,4314224,347,77.285
I,9,4238213,sinestep3.wav,None,1000,18,4316224,327,79.285
I,9,4238213,sinestep5.wav,None,1000,18,4318224,327,81.285
I,9,4238213,sinestep5.wav,None,1000,18,4320224,327,83.285
I,9,4238213,vowelstep5.wav,None,1000,18,4322224,337,85.285
I,9,4238213,vowelstep7.wav,None,1000,18,4324224,337,87.285
I,9,4238213,sinestep3.wav,None,1000,18,4326224,337,89.285
I,9,4238213,vowelstep3.wav,None,1000,18,4328224,348,91.285
I,9,4238213,sinestep3.wav,None,1000,18,4330224,316,93.285
I,9,4238213,vowelstep5.wav,None,1000,18,4332224,326,95.285
I,9,4238213,sinestep7.wav,None,1000,18,4334224,326,97.285
I,9,4238213,sinestep3_catch.wav,1,394,18,4336224,336,99.285
I,9,4238213,sinestep1_catch.wav,1,57,18,4338224,942,101.285
I,9,4238213,vowelstep3.wav,None,1000,18,4340224,1279,103.285
I,9,4238213,vowelstep3.wav,None,1000,18,4342224,337,105.285
I,9,4238213,vowelstep5.wav,None,1000,18,4344225,327,107.285
I,9,4238213,sinestep5.wav,None,1000,18,4346225,325,109.285
I,9,4238213,vowelstep5.wav,None,1000,18,4348225,325,111.285
I,9,4238213,vowelstep5.wav,None,1000,18,4350225,335,113.285
I,9,4238213,vowelstep1.wav,None,1000,18,4352224,334,115.285
I,9,4238213,vowelstep1_catch.wav,1,163,18,4354224,336,117.285
I,9,4238213,sinestep7.wav,None,1000,18,4356224,1178,119.285
I,9,4238213,vowelstep3.wav,None,1000,18,4358224,315,121.285
I,9,4238213,sinestep7.wav,None,1000,18,4360224,324,123.285
I,9,4238213,sinestep7.wav,None,1000,18,4362225,324,125.285
I,9,4238213,vowelstep7.wav,None,1000,18,4364225,330,127.285
I,9,4238213,vowelstep3.wav,None,1000,18,4366225,335,129.285
I,9,4238213,sinestep5.wav,None,1000,18,4368225,335,131.285
I,9,4238213,sinestep5.wav,None,1000,18,4370225,334,133.285
I,9,4238213,vowelstep3.wav,None,1000,18,4372225,324,135.285
I,9,4238213,sinestep5.wav,None,1000,18,4374225,324,137.285
I,9,4238213,sinestep1.wav,None,1000,18,4376224,324,139.285
I,9,4238213,vowelstep7.wav,None,1000,18,4378224,323,141.285
I,9,4238213,silence.wav,None,1000,18,4380225,334,143.285
I,9,4238213,vowelstep7.wav,None,1000,18,4382225,334,145.285
I,9,4238213,silence.wav,None,1000,18,4384225,343,147.285
I,9,4238213,sinestep1.wav,None,1000,18,4386225,314,149.285
I,9,4238213,vowelstep1.wav,None,1000,18,4388225,323,151.285
I,9,4238213,vowelstep3.wav,None,1000,18,4390225,323,153.285
I,9,4238213,silence.wav,None,1000,18,4392225,324,155.285
I,9,4238213,silence.wav,None,1000,18,4394225,334,157.285
I,9,4238213,vowelstep1.wav,None,1000,18,4396225,333,159.285
I,9,4238213,sinestep1.wav,None,1000,18,4398226,333,161.285
I,9,4238213,vowelstep3_catch.wav,1,198,18,4400225,312,163.285
I,9,4238213,sinestep1.wav,None,1000,18,4402225,1123,165.285
I,9,4238213,vowelstep5.wav,None,1000,18,4404225,322,167.285
I,9,4238213,vowelstep5_catch.wav,1,192,18,4406225,322,169.285
I,9,4238213,sinestep1.wav,None,1000,18,4408225,1140,171.285
I,9,4238213,silence.wav,None,1000,18,4410225,333,173.285
I,9,4238213,vowelstep5.wav,None,1000,18,4412225,332,175.285
I,9,4238213,sinestep3.wav,None,1000,18,4414226,342,177.285
I,9,4238213,sinestep3.wav,None,1000,18,4416226,322,179.285
I,9,4238213,silence.wav,None,1000,18,4418226,321,181.285
I,9,4238213,silence.wav,None,1000,18,4420226,322,183.285
I,9,4238213,vowelstep3.wav,None,1000,18,4422226,321,185.285
I,9,4238213,vowelstep7.wav,None,1000,18,4424226,331,187.285
I,9,4238213,vowelstep7.wav,None,1000,18,4426225,332,189.285
I,9,4238213,silence.wav,None,1000,18,4428225,311,191.285
I,9,4238213,sinestep3.wav,None,1000,18,4430225,321,193.285
I,9,4238213,sinestep3.wav,None,1000,18,4432226,321,195.285
I,9,4238213,vowelstep5.wav,None,1000,18,4434226,320,197.285
I,9,4238213,vowelstep1.wav,None,1000,18,4436226,330,199.285
I,9,4238213,vowelstep1.wav,None,1000,18,4438226,330,201.285
I,9,4238213,sinestep5.wav,None,1000,18,4440226,330,203.285
I,9,4238213,silence.wav,None,1000,18,4442226,340,205.285
I,9,4238213,sinestep5.wav,None,1000,18,4444226,320,207.285
I,9,4238213,sinestep7.wav,None,1000,18,4446226,320,209.285
I,9,4238213,sinestep1.wav,None,1000,18,4448225,320,211.285
I,9,4238213,sinestep5.wav,None,1000,18,4450226,330,213.285
I,9,4238213,vowelstep5.wav,None,1000,18,4452226,329,215.285
I,9,4238213,sinestep7.wav,None,1000,18,4454226,329,217.285
I,9,4238213,sinestep5.wav,None,1000,18,4456226,339,219.285
I,9,4238213,sinestep3.wav,None,1000,18,4458226,317,221.285
I,9,4238213,silence.wav,None,1000,18,4460226,319,223.285
I,9,4238213,vowelstep7_catch.wav,1,173,18,4462226,319,225.285
I,9,4238213,sinestep7.wav,None,1000,18,4464226,1155,227.285
I,9,4238213,sinestep7.wav,None,1000,18,4466226,329,229.285
I,9,4238213,sinestep3.wav,None,1000,18,4468227,328,231.285
I,9,4238213,vowelstep3.wav,None,1000,18,4470227,327,233.285
I,9,4238213,silence.wav,None,1000,18,4472226,318,235.285
I,9,4238213,sinestep3.wav,None,1000,18,4474226,318,237.285
I,9,4238213,sinestep5.wav,None,1000,18,4476226,318,239.285
I,9,4238213,silence.wav,None,1000,18,4478226,317,241.285
I,9,4238213,vowelstep3.wav,None,1000,18,4480226,327,243.285
I,9,4238213,sinestep1.wav,None,1000,18,4482226,327,245.285
I,9,4238213,sinestep1.wav,None,1000,18,4484227,327,247.285
I,9,4238213,sinestep7.wav,None,1000,18,4486227,337,249.285
I,9,4238213,vowelstep7.wav,None,1000,18,4488227,318,251.285
I,9,4238213,vowelstep5.wav,None,1000,18,4490227,316,253.285
I,9,4238213,silence.wav,None,1000,18,4492227,317,255.285
I,9,4238213,sinestep3.wav,None,1000,18,4494227,326,257.285
I,9,4238213,vowelstep1.wav,None,1000,18,4496227,327,259.285
I,9,4238213,vowelstep1.wav,None,1000,18,4498226,336,261.285
I,9,4238213,silence.wav,None,1000,18,4500226,306,263.285
I,9,4238213,vowelstep3.wav,None,1000,18,4502227,316,265.285
I,9,4238213,silence.wav,None,1000,18,4504227,316,267.285
I,9,4238213,silence.wav,None,1000,18,4506227,315,269.285
I,9,4238213,sinestep7.wav,None,1000,18,4508227,326,271.285
I,9,4238213,sinestep7.wav,None,1000,18,4510227,325,273.285
I,9,4238213,vowelstep5.wav,None,1000,18,4512227,325,275.285
I,9,4238213,silence.wav,None,1000,18,4514227,336,277.285
I,9,4238213,silence.wav,None,1000,18,4516227,315,279.285
I,9,4238213,sinestep1.wav,None,1000,18,4518227,315,281.285
I,9,4238213,silence.wav,None,1000,18,4520228,315,283.285
I,9,4238213,vowelstep7.wav,None,1000,18,4522227,324,285.285
I,9,4238213,vowelstep5_catch.wav,1,166,18,4524227,324,287.285
I,9,4238213,sinestep7.wav,None,1000,18,4526227,1168,289.285
I,9,4238213,sinestep1.wav,None,1000,18,4528227,335,291.285
I,9,4238213,vowelstep3_catch.wav,1,217,18,4530227,314,293.285
I,9,4238213,sinestep1.wav,None,1000,18,4532227,1096,295.285
I,9,4238213,vowelstep7.wav,None,1000,18,4534227,315,297.285
I,9,4238213,sinestep3.wav,None,1000,18,4536227,324,299.285
I,9,4238213,vowelstep5.wav,None,1000,18,4538228,324,301.285
I,9,4238213,vowelstep1_catch.wav,1,186,18,4540228,323,303.285
I,9,4238213,vowelstep7.wav,None,1000,18,4542228,1147,305.285
I,9,4238213,vowelstep5.wav,None,1000,18,4544228,313,307.285
I,9,4238213,sinestep1_catch.wav,1,335,18,4546227,333,309.285
I,9,4238213,silence.wav,None,1000,18,4548227,1007,311.285
I,9,4238213,sinestep7.wav,None,1000,18,4550227,323,313.285
I,9,4238213,silence.wav,None,1000,18,4552227,323,315.285
I,9,4238213,vowelstep1.wav,None,1000,18,4554228,323,317.285
I,9,4238213,sinestep7.wav,None,1000,18,4556228,332,319.285