block,count_main_sequence,first_trial_timestamp,fname,response_catch_response,response_time_catch_response,subject_nr,time_stimulus,time_to_pad,timing
E,0,136159,vowelstep7.wav,None,1000,6,136168,0,1.285
E,0,136159,sinestep3.wav,None,1000,6,138168,326,3.285
E,0,136159,sinestep5.wav,None,1000,6,140169,344,5.285
E,0,136159,sinestep1.wav,None,1000,6,142169,344,7.285
E,0,136159,sinestep5.wav,None,1000,6,144169,354,9.285
E,0,136159,silence.wav,None,1000,6,146169,355,11.285
E,0,136159,vowelstep1.wav,None,1000,6,148169,335,13.285
E,0,136159,vowelstep7.wav,None,1000,6,150169,334,15.285
E,0,136159,vowelstep1.wav,None,1000,6,152169,333,17.285
E,0,136159,sinestep1_catch.wav,1,171,6,154168,344,19.285
E,0,136159,vowelstep5.wav,None,1000,6,156168,1172,21.285
E,0,136159,sinestep5.wav,None,1000,6,158169,344,23.285
E,0,136159,vowelstep5.wav,None,1000,6,160169,353,25.285
E,0,136159,vowelstep3.wav,None,1000,6,162169,353,27.285
E,0,136159,sinestep1.wav,None,1000,6,164169,353,29.285
E,0,136159,vowelstep5.wav,None,1000,6,166169,333,31.285
E,0,136159,silence.wav,None,1000,6,168169,343,33.285
E,0,136159,silence.wav,None,1000,6,170169,342,35.285
E,0,136159,sinestep3.wav,None,1000,6,172169,344,37.285
E,0,136159,sinestep3.wav,None,1000,6,174169,353,39.285
E,0,136159,sinestep3.wav,None,1000,6,176170,351,41.285
E,0,136159,sinestep1.wav,None,1000,6,178169,352,43.285
E,0,136159,vowelstep1.wav,None,1000,6,180169,342,45.285
E,0,136159,sinestep1.wav,None,1000,6,182169,341,47.285
E,0,136159,vowelstep7.wav,None,1000,6,184169,342,49.285
E,0,136159,vowelstep5.wav,None,1000,6,186169,342,51.285
E,0,136159,sinestep7.wav,None,1000,6,188169,351,53.285
E,0,136159,sinestep1.wav,None,1000,6,190169,352,55.285
E,0,136159,vowelstep5.wav,None,1000,6,192170,352,57.285
E,0,136159,sinestep3.wav,None,1000,6,194170,331,59.285
E,0,136159,vowelstep1.wav,None,1000,6,196170,341,61.285
E,0,136159,vowelstep5.wav,None,1000,6,198170,341,63.285
E,0,136159,vowelstep3.wav,None,1000,6,200170,340,65.285
E,0,136159,sinestep1.wav,None,1000,6,202169,351,67.285
E,0,136159,vowelstep3.wav,None,1000,6,204169,351,69.285
E,0,136159,silence.wav,None,1000,6,206169,351,71.285
E,0,136159,vowelstep3.wav,None,1000,6,208169,361,73.285
E,0,136159,sinestep3_catch.wav,1,309,6,210170,341,75.285
E,0,136159,sinestep3.wav,None,1000,6,212170,1030,77.285
E,0,136159,vowelstep3.wav,None,1000,6,214170,340,79.285
E,0,136159,vowelstep7.wav,None,1000,6,216170,340,81.285
E,0,136159,silence.wav,None,1000,6,218170,349,83.285
E,0,136159,sinestep3.wav,None,1000,6,220170,349,85.285
E,0,136159,silence.wav,None,1000,6,222170,359,87.285
E,0,136159,sinestep1.wav,None,1000,6,224170,340,89.285
E,0,136159,sinestep5_catch.wav,1,183,6,226169,340,91.285
E,0,136159,vowelstep3.wav,None,1000,6,228170,1155,93.285
E,0,136159,sinestep5.wav,None,1000,6,230170,348,95.285
E,0,136159,vowelstep7.wav,None,1000,6,232170,347,97.285
E,0,136159,sinestep1.wav,None,1000,6,234170,349,99.285
E,0,136159,sinestep5.wav,None,1000,6,236170,358,101.285
E,0,136159,sinestep5.wav,None,1000,6,238170,329,103.285
E,0,136159,vowelstep7.wav,None,1000,6,240170,339,105.285
E,0,136159,vowelstep3.wav,None,1000,6,242170,340,107.285
E,0,136159,vowelstep7.wav,None,1000,6,244170,350,109.285
E,0,136159,sinestep5.wav,None,1000,6,246171,348,111.285
E,0,136159,vowelstep3.wav,None,1000,6,248171,347,113.285
E,0,136159,vowelstep7.wav,None,1000,6,250170,347,115.285
E,0,136159,sinestep3.wav,None,1000,6,252170,327,117.285
E,0,136159,vowelstep7.wav,None,1000,6,254170,338,119.285
E,0,136159,silence.wav,None,1000,6,256170,337,121.285
E,0,136159,silence.wav,None,1000,6,258170,338,123.285
E,0,136159,sinestep7.wav,None,1000,6,260170,347,125.285
E,0,136159,sinestep7_catch.wav,1,202,6,262171,346,127.285
E,0,136159,sinestep7.wav,None,1000,6,264171,1143,129.285
E,0,136159,silence.wav,None,1000,6,266171,326,131.285
E,0,136159,sinestep7_catch.wav,1,284,6,268171,336,133.285
E,0,136159,sinestep7.wav,None,1000,6,270171,1052,135.285
E,0,136159,sinestep5_catch.wav,None,1000,6,272171,336,137.285
E,0,136159,sinestep1.wav,None,1000,6,274170,346,139.285
E,0,136159,sinestep1.wav,None,1000,6,276170,346,141.285
E,0,136159,sinestep1.wav,None,1000,6,278170,346,143.285
E,0,136159,sinestep3.wav,None,1000,6,280171,325,145.285
E,0,136159,vowelstep5.wav,None,1000,6,282171,335,147.285
E,0,136159,silence.wav,None,1000,6,284171,335,149.285
E,0,136159,sinestep3_catch.wav,1,174,6,286171,335,151.285
E,0,136159,silence.wav,None,1000,6,288171,1170,153.285
E,0,136159,sinestep7.wav,None,1000,6,290171,345,155.285
E,0,136159,sinestep5.wav,None,1000,6,292171,345,157.285
E,0,136159,silence.wav,None,1000,6,294171,355,159.285
E,0,136159,vowelstep5.wav,None,1000,6,296171,335,161.285
E,0,136159,vowelstep1.wav,None,1000,6,298171,335,163.285
E,0,136159,vowelstep3.wav,None,1000,6,300171,334,165.285
E,0,136159,sinestep5.wav,None,1000,6,302171,344,167.285
E,0,136159,sinestep7.wav,None,1000,6,304171,344,169.285
E,0,136159,vowelstep1.wav,None,1000,6,306171,344,171.285
E,0,136159,vowelstep7.wav,None,1000,6,308171,326,173.285
E,0,136159,sinestep3.wav,None,1000,6,310171,334,175.285
E,0,136159,silence.wav,None,1000,6,312171,334,177.285
E,0,136159,sinestep1_catch.wav,1,210,6,314171,335,179.285
E,0,136159,sinestep7.wav,None,1000,6,316172,1134,181.285
E,0,136159,vowelstep1.wav,None,1000,6,318172,344,183.285
E,0,136159,sinestep5.wav,None,1000,6,320172,344,185.285
E,0,136159,sinestep5.wav,None,1000,6,322171,355,187.285
E,0,136159,vowelstep1.wav,None,1000,6,324171,335,189.285
E,0,136159,sinestep7.wav,None,1000,6,326171,334,191.285
E,0,136159,sinestep3.wav,None,1000,6,328171,333,193.285
E,0,136159,sinestep7.wav,None,1000,6,330171,334,195.285
E,0,136159,silence.wav,None,1000,6,332172,342,197.285
E,0,136159,vowelstep1.wav,None,1000,6,334172,343,199.285
E,0,136159,sinestep1.wav,None,1000,6,336172,353,201.285
E,0,136159,vowelstep1.wav,None,1000,6,338172,323,203.285
E,0,136159,vowelstep1.wav,None,1000,6,340172,333,205.285
E,0,136159,vowelstep1_catch.wav,1,359,6,342172,331,207.285
E,0,136159,vowelstep1.wav,None,1000,6,344172,982,209.285
E,0,136159,vowelstep1.wav,None,1000,6,346171,342,211.285
E,0,136159,silence.wav,None,1000,6,348171,342,213.285
E,0,136159,sinestep7.wav,None,1000,6,350172,343,215.285
E,0,136159,vowelstep7.wav,None,1000,6,352172,332,217.285
E,0,136159,vowelstep3_catch.wav,1,145,6,354172,332,219.285
E,0,136159,vowelstep5.wav,None,1000,6,356172,1187,221.285
E,0,136159,sinestep3.wav,None,1000,6,358172,332,223.285
E,0,136159,silence.wav,None,1000,6,360172,341,225.285
E,0,136159,sinestep1.wav,None,1000,6,362172,342,227.285
E,0,136159,sinestep5.wav,None,1000,6,364172,352,229.285
E,0,136159,sinestep5.wav,None,1000,6,366172,321,231.285
E,0,136159,sinestep3.wav,None,1000,6,368173,331,233.285
E,0,136159,sinestep5.wav,None,1000,6,370172,331,235.285
E,0,136159,vowelstep3.wav,None,1000,6,372172,340,237.285
E,0,136159,sinestep7.wav,None,1000,6,374172,341,239.285
E,0,136159,sinestep7.wav,None,1000,6,376172,339,241.285
E,0,136159,silence.wav,None,1000,6,378172,350,243.285
E,0,136159,sinestep3.wav,None,1000,6,380172,331,245.285
E,0,136159,sinestep3.wav,None,1000,6,382172,331,247.285
E,0,136159,vowelstep3.wav,None,1000,6,384172,331,249.285
E,0,136159,silence.wav,None,1000,6,386173,329,251.285
E,0,136159,sinestep7.wav,None,1000,6,388173,338,253.285
E,0,136159,silence.wav,None,1000,6,390173,340,255.285
E,0,136159,vowelstep7.wav,None,1000,6,392173,335,257.285
E,0,136159,vowelstep3.wav,None,1000,6,394172,350,259.285
E,0,136159,silence.wav,None,1000,6,396172,348,261.285
E,0,136159,vowelstep3.wav,None,1000,6,398172,349,263.285
E,0,136159,vowelstep1.wav,None,1000,6,400172,330,265.285
E,0,136159,vowelstep5.wav,None,1000,6,402173,338,267.285
E,0,136159,silence.wav,None,1000,6,404173,338,269.285
E,0,136159,vowelstep3.wav,None,1000,6,406173,339,271.285
E,0,136159,sinestep1.wav,None,1000,6,408173,347,273.285
E,0,136159,vowelstep5_catch.wav,1,362,6,410173,348,275.285
E,0,136159,sinestep7.wav,None,1000,6,412173,985,277.285
E,0,136159,sinestep7.wav,None,1000,6,414173,327,279.285
E,0,136159,vowelstep7.wav,None,1000,6,416173,340,281.285
E,0,136159,silence.wav,None,1000,6,418172,338,283.285
E,0,136159,sinestep5.wav,None,1000,6,420173,335,285.285
E,0,136159,silence.wav,None,1000,6,422173,347,287.285
E,0,136159,silence.wav,None,1000,6,424173,344,289.285
E,0,136159,vowelstep5.wav,None,1000,6,426173,347,291.285
E,0,136159,vowelstep5.wav,None,1000,6,428173,358,293.285
E,0,136159,silence.wav,None,1000,6,430173,336,295.285
E,0,136159,vowelstep5.wav,None,1000,6,432173,337,297.285
E,0,136159,vowelstep7_catch.wav,1,219,6,434173,336,299.285
E,0,136159,vowelstep7_catch.wav,1,358,6,436173,1127,301.285
E,0,136159,vowelstep5.wav,None,1000,6,438174,988,303.285
E,0,136159,sinestep1.wav,None,1000,6,440174,345,305.285
E,0,136159,vowelstep3.wav,None,1000,6,442173,355,307.285
E,0,136159,vowelstep5_catch.wav,1,108,6,444173,335,309.285
E,0,136159,vowelstep7.wav,None,1000,6,446173,1227,311.285
E,0,136159,vowelstep5.wav,None,1000,6,448173,335,313.285
E,0,136159,vowelstep7.wav,None,1000,6,450173,346,315.285
E,0,136159,vowelstep1.wav,None,1000,6,452173,346,317.285
E,0,136159,vowelstep3_catch.wav,1,186,6,454174,345,319.285
D,1,554773,sinestep5.wav,None,1000,6,554791,0,1.285
D,1,554773,vowelstep1_catch.wav,1,367,6,556791,335,3.285
D,1,554773,sinestep7.wav,None,1000,6,558791,969,5.285
D,1,554773,vowelstep3.wav,None,1000,6,560792,335,7.285
D,1,554773,vowelstep3_catch.wav,1,238,6,562775,316,9.285
D,1,554773,vowelstep5_catch.wav,1,958,6,564792,1103,11.285
D,1,554773,sinestep7.wav,None,1000,6,566792,366,13.285
D,1,554773,silence.wav,None,1000,6,568792,325,15.285
D,1,554773,vowelstep7_catch.wav,1,92,6,570792,334,17.285
D,1,554773,vowelstep7.wav,None,1000,6,572792,1243,19.285
D,1,554773,vowelstep3.wav,None,1000,6,574792,334,21.285
D,1,554773,vowelstep7_catch.wav,1,148,6,576793,344,23.285
D,1,554773,vowelstep5.wav,None,1000,6,578776,1175,25.285
D,1,554773,sinestep7.wav,None,1000,6,580776,344,27.285
D,1,554773,silence.wav,None,1000,6,582792,354,29.285
D,1,554773,vowelstep1.wav,None,1000,6,584792,324,31.285
D,1,554773,vowelstep1.wav,None,1000,6,586792,333,33.285
D,1,554773,vowelstep7.wav,None,1000,6,588792,334,35.285
D,1,554773,vowelstep3.wav,None,1000,6,590792,343,37.285
D,1,554773,sinestep3.wav,None,1000,6,592792,324,39.285
D,1,554773,sinestep1.wav,None,1000,6,594776,325,41.285
D,1,554773,vowelstep1.wav,None,1000,6,596776,353,43.285
D,1,554773,vowelstep1.wav,None,1000,6,598776,353,45.285
D,1,554773,sinestep7.wav,None,1000,6,600793,353,47.285
D,1,554773,sinestep3.wav,None,1000,6,602792,331,49.285
D,1,554773,vowelstep5_catch.wav,1,203,6,604792,342,51.285
D,1,554773,sinestep7.wav,None,1000,6,606792,1119,53.285
D,1,554773,vowelstep5.wav,None,1000,6,608792,323,55.285
D,1,554773,sinestep3.wav,None,1000,6,610775,323,57.285
D,1,554773,sinestep7.wav,None,1000,6,612776,353,59.285
D,1,554773,vowelstep3.wav,None,1000,6,614776,351,61.285
D,1,554773,vowelstep3.wav,None,1000,6,616776,352,63.285
D,1,554773,vowelstep3_catch.wav,1,278,6,618793,332,65.285
D,1,554773,silence.wav,None,1000,6,620793,1064,67.285
D,1,554773,vowelstep7.wav,None,1000,6,622793,322,69.285
D,1,554773,silence.wav,None,1000,6,624793,321,71.285
D,1,554773,sinestep1.wav,None,1000,6,626776,319,73.285
D,1,554773,vowelstep5.wav,None,1000,6,628776,352,75.285
D,1,554773,vowelstep1.wav,None,1000,6,630777,350,77.285
D,1,554773,sinestep7.wav,None,1000,6,632777,341,79.285
D,1,554773,vowelstep1.wav,None,1000,6,634776,340,81.285
D,1,554773,sinestep7.wav,None,1000,6,636776,341,83.285
D,1,554773,vowelstep7.wav,None,1000,6,638793,341,85.285
D,1,554773,vowelstep5.wav,None,1000,6,640793,330,87.285
D,1,554773,vowelstep1.wav,None,1000,6,642776,331,89.285
D,1,554773,sinestep5.wav,None,1000,6,644776,351,91.285
D,1,554773,sinestep5.wav,None,1000,6,646777,331,93.285
D,1,554773,vowelstep3.wav,None,1000,6,648777,340,95.285
D,1,554773,silence.wav,None,1000,6,650777,339,97.285
D,1,554773,sinestep1.wav,None,1000,6,652777,339,99.285
D,1,554773,sinestep1.wav,None,1000,6,654777,349,101.285
D,1,554773,sinestep3.wav,None,1000,6,656793,349,103.285
D,1,554773,vowelstep1.wav,None,1000,6,658776,330,105.285
D,1,554773,sinestep7.wav,1,294,6,660776,359,107.285
D,1,554773,vowelstep3.wav,None,1000,6,662776,1044,109.285
D,1,554773,silence.wav,None,1000,6,664777,339,111.285
D,1,554773,vowelstep5.wav,None,1000,6,666777,338,113.285
D,1,554773,vowelstep1.wav,None,1000,6,668777,348,115.285
D,1,554773,vowelstep1_catch.wav,1,235,6,670777,348,117.285
D,1,554773,vowelstep7.wav,None,1000,6,672777,1112,119.285
D,1,554773,sinestep5.wav,None,1000,6,674777,359,121.285
D,1,554773,vowelstep7.wav,None,1000,6,676777,339,123.285
D,1,554773,sinestep1.wav,None,1000,6,678777,339,125.285
D,1,554773,sinestep1.wav,None,1000,6,680777,339,127.285
D,1,554773,vowelstep3.wav,None,1000,6,682777,348,129.285
D,1,554773,sinestep1.wav,None,1000,6,684777,347,131.285
D,1,554773,silence.wav,None,1000,6,686777,347,133.285
D,1,554773,sinestep3.wav,None,1000,6,688777,328,135.285
D,1,554773,silence.wav,None,1000,6,690777,338,137.285
D,1,554773,vowelstep3.wav,None,1000,6,692777,337,139.285
D,1,554773,vowelstep5.wav,None,1000,6,694777,338,141.285
D,1,554773,silence.wav,None,1000,6,696777,347,143.285
D,1,554773,sinestep5.wav,None,1000,6,698777,347,145.285
D,1,554773,sinestep5.wav,None,1000,6,700778,346,147.285
D,1,554773,sinestep1.wav,None,1000,6,702778,346,149.285
D,1,554773,vowelstep5.wav,None,1000,6,704778,336,151.285
D,1,554773,vowelstep5.wav,None,1000,6,706777,336,153.285
D,1,554773,sinestep1_catch.wav,1,324,6,708777,366,155.285
D,1,554773,sinestep5.wav,None,1000,6,710777,1023,157.285
D,1,554773,vowelstep3.wav,None,1000,6,712777,345,159.285
D,1,554773,vowelstep7.wav,None,1000,6,714777,345,161.285
D,1,554773,vowelstep3.wav,None,1000,6,716778,345,163.285
D,1,554773,sinestep3.wav,None,1000,6,718778,356,165.285
D,1,554773,sinestep1.wav,None,1000,6,720778,335,167.285
D,1,554773,silence.wav,None,1000,6,722778,355,169.285
D,1,554773,sinestep1.wav,None,1000,6,724778,345,171.285
D,1,554773,vowelstep1.wav,None,1000,6,726778,343,173.285
D,1,554773,vowelstep3.wav,None,1000,6,728778,345,175.285
D,1,554773,silence.wav,None,1000,6,730777,344,177.285
D,1,554773,sinestep7.wav,None,1000,6,732777,355,179.285
D,1,554773,silence.wav,None,1000,6,734778,355,181.285
D,1,554773,vowelstep7.wav,None,1000,6,736778,364,183.285
D,1,554773,sinestep3.wav,None,1000,6,738778,334,185.285
D,1,554773,vowelstep1.wav,None,1000,6,740778,344,187.285
D,1,554773,sinestep7.wav,None,1000,6,742778,344,189.285
D,1,554773,silence.wav,None,1000,6,744778,354,191.285
D,1,554773,sinestep1.wav,None,1000,6,746778,354,193.285
D,1,554773,sinestep3.wav,None,1000,6,748778,354,195.285
D,1,554773,sinestep5.wav,None,1000,6,750778,354,197.285
D,1,554773,vowelstep3.wav,None,1000,6,752779,364,199.285
D,1,554773,sinestep5.wav,1,409,6,754779,344,201.285
D,1,554773,sinestep5.wav,None,1000,6,756778,934,203.285
D,1,554773,sinestep3.wav,None,1000,6,758778,343,205.285
D,1,554773,sinestep3.wav,None,1000,6,760778,353,207.285
D,1,554773,sinestep5.wav,None,1000,6,762778,353,209.285
D,1,554773,sinestep3_catch.wav,1,783,6,764778,353,211.285
D,1,554773,vowelstep7.wav,None,1000,6,766778,579,213.285
D,1,554773,sinestep1.wav,None,1000,6,768778,343,215.285
D,1,554773,sinestep7.wav,None,1000,6,770779,342,217.285
D,1,554773,vowelstep1.wav,None,1000,6,772779,342,219.285
D,1,554773,sinestep5.wav,None,1000,6,774779,352,221.285
D,1,554773,silence.wav,None,1000,6,776779,352,223.285
D,1,554773,sinestep5_catch.wav,1,130,6,778779,352,225.285
D,1,554773,sinestep5.wav,None,1000,6,780778,1201,227.285
D,1,554773,silence.wav,None,1000,6,782778,332,229.285
D,1,554773,vowelstep7.wav,None,1000,6,784778,342,231.285
D,1,554773,sinestep3.wav,None,1000,6,786779,351,233.285
D,1,554773,vowelstep5.wav,None,1000,6,788779,351,235.285
D,1,554773,vowelstep7.wav,None,1000,6,790779,351,237.285
D,1,554773,vowelstep5.wav,None,1000,6,792779,351,239.285
D,1,554773,silence.wav,None,1000,6,794779,341,241.285
D,1,554773,silence.wav,None,1000,6,796779,338,243.285
D,1,554773,silence.wav,None,1000,6,798779,341,245.285
D,1,554773,sinestep7.wav,None,1000,6,800779,341,247.285
D,1,554773,sinestep5.wav,None,1000,6,802779,349,249.285
D,1,554773,sinestep7_catch.wav,1,238,6,804779,352,251.285
D,1,554773,vowelstep1.wav,None,1000,6,806779,1111,253.285
D,1,554773,vowelstep1.wav,None,1000,6,808779,330,255.285
D,1,554773,vowelstep3.wav,None,1000,6,810779,340,257.285
D,1,554773,silence.wav,None,1000,6,812779,340,259.285
D,1,554773,sinestep5.wav,None,1000,6,814779,340,261.285
D,1,554773,vowelstep7.wav,None,1000,6,816779,350,263.285
D,1,554773,vowelstep3.wav,None,1000,6,818779,350,265.285
D,1,554773,vowelstep7.wav,None,1000,6,820779,351,267.285
D,1,554773,vowelstep5.wav,None,1000,6,822780,360,269.285
D,1,554773,sinestep1.wav,None,1000,6,824780,340,271.285
D,1,554773,sinestep7.wav,None,1000,6,826780,340,273.285
D,1,554773,sinestep3.wav,None,1000,6,828779,338,275.285
D,1,554773,silence.wav,None,1000,6,830779,338,277.285
D,1,554773,sinestep7.wav,None,1000,6,832779,349,279.285
D,1,554773,vowelstep5.wav,None,1000,6,834779,348,281.285
D,1,554773,sinestep1.wav,None,1000,6,836779,359,283.285
D,1,554773,vowelstep1.wav,None,1000,6,838780,339,285.285
D,1,554773,sinestep1.wav,None,1000,6,840780,335,287.285
D,1,554773,vowelstep5.wav,None,1000,6,842780,337,289.285
D,1,554773,silence.wav,None,1000,6,844780,334,291.285
D,1,554773,sinestep3.wav,None,1000,6,846780,348,293.285
D,1,554773,vowelstep5.wav,None,1000,6,848780,348,295.285
D,1,554773,silence.wav,None,1000,6,850780,348,297.285
D,1,554773,sinestep3.wav,None,1000,6,852779,327,299.285
D,1,554773,vowelstep7.wav,None,1000,6,854779,336,301.285
D,1,554773,sinestep7_catch.wav,1,162,6,856780,336,303.285
D,1,554773,sinestep5_catch.wav,1,340,6,858780,1173,305.285
D,1,554773,sinestep3.wav,None,1000,6,860780,1006,307.285
D,1,554773,vowelstep5.wav,None,1000,6,862780,346,309.285
D,1,554773,silence.wav,None,1000,6,864780,346,311.285
D,1,554773,sinestep3_catch.wav,1,218,6,866780,336,313.285
D,1,554773,silence.wav,None,1000,6,868780,1118,315.285
D,1,554773,vowelstep7.wav,None,1000,6,870780,337,317.285
D,1,554773,silence.wav,None,1000,6,872780,336,319.285
F,2,948211,sinestep1.wav,None,1000,6,948215,0,1.285
F,2,948211,vowelstep5.wav,None,1000,6,950215,338,3.285
F,2,948211,vowelstep3.wav,None,1000,6,952215,349,5.285
F,2,948211,sinestep5.wav,None,1000,6,954231,349,7.285
F,2,948211,vowelstep7.wav,None,1000,6,956214,330,9.285
F,2,948211,silence.wav,None,1000,6,958214,349,11.285
F,2,948211,vowelstep5.wav,None,1000,6,960214,339,13.285
F,2,948211,sinestep3.wav,None,1000,6,962215,339,15.285
F,2,948211,sinestep3.wav,None,1000,6,964215,338,17.285
F,2,948211,silence.wav,None,1000,6,966215,339,19.285
F,2,948211,vowelstep7.wav,None,1000,6,968215,348,21.285
F,2,948211,vowelstep7.wav,None,1000,6,970215,348,23.285
F,2,948211,vowelstep1_catch.wav,1,244,6,972215,358,25.285
F,2,948211,vowelstep3_catch.wav,1,221,6,974215,1094,27.285
F,2,948211,vowelstep1.wav,None,1000,6,976215,1117,29.285
F,2,948211,sinestep5.wav,None,1000,6,978215,338,31.285
F,2,948211,sinestep5.wav,None,1000,6,980215,347,33.285
F,2,948211,vowelstep7.wav,None,1000,6,982215,347,35.285
F,2,948211,sinestep3.wav,None,1000,6,984215,347,37.285
F,2,948211,sinestep7.wav,None,1000,6,986215,348,39.285
F,2,948211,vowelstep5_catch.wav,1,448,6,988215,336,41.285
F,2,948211,sinestep1.wav,None,1000,6,990215,889,43.285
F,2,948211,vowelstep7_catch.wav,1,557,6,992215,338,45.285
F,2,948211,vowelstep3.wav,None,1000,6,994215,790,47.285
F,2,948211,sinestep1.wav,None,1000,6,996216,344,49.285
F,2,948211,sinestep7.wav,None,1000,6,998216,345,51.285
F,2,948211,silence.wav,None,1000,6,1000216,356,53.285
F,2,948211,sinestep7.wav,None,1000,6,1002216,326,55.285
F,2,948211,vowelstep1.wav,None,1000,6,1004215,336,57.285
F,2,948211,vowelstep3.wav,None,1000,6,1006215,336,59.285
F,2,948211,vowelstep7_catch.wav,1,348,6,1008215,346,61.285
F,2,948211,sinestep5.wav,None,1000,6,1010215,998,63.285
F,2,948211,sinestep3.wav,None,1000,6,1012215,346,65.285
F,2,948211,vowelstep3.wav,None,1000,6,1014216,346,67.285
F,2,948211,silence.wav,None,1000,6,1016216,325,69.285
F,2,948211,vowelstep1.wav,None,1000,6,1018216,335,71.285
F,2,948211,vowelstep1.wav,None,1000,6,1020216,334,73.285
F,2,948211,vowelstep5_catch.wav,1,332,6,1022216,335,75.285
F,2,948211,silence.wav,None,1000,6,1024216,1013,77.285
F,2,948211,vowelstep3.wav,None,1000,6,1026216,343,79.285
F,2,948211,vowelstep5.wav,1,432,6,1028215,345,81.285
F,2,948211,vowelstep3_catch.wav,1,395,6,1030215,922,83.285
F,2,948211,vowelstep3.wav,None,1000,6,1032216,958,85.285
F,2,948211,sinestep7.wav,None,1000,6,1034216,354,87.285
F,2,948211,vowelstep1.wav,None,1000,6,1036216,333,89.285
F,2,948211,sinestep1.wav,None,1000,6,1038216,345,91.285
F,2,948211,vowelstep1_catch.wav,1,249,6,1040216,343,93.285
F,2,948211,vowelstep5.wav,None,1000,6,1042216,1094,95.285
F,2,948211,sinestep7.wav,None,1000,6,1044216,354,97.285
F,2,948211,vowelstep7.wav,None,1000,6,1046216,354,99.285
F,2,948211,vowelstep3.wav,None,1000,6,1048216,354,101.285
F,2,948211,sinestep3.wav,None,1000,6,1050217,362,103.285
F,2,948211,silence.wav,None,1000,6,1052216,342,105.285
F,2,948211,sinestep1.wav,None,1000,6,1054216,343,107.285
F,2,948211,sinestep1.wav,None,1000,6,1056216,342,109.285
F,2,948211,silence.wav,None,1000,6,1058216,353,111.285
F,2,948211,sinestep7.wav,None,1000,6,1060216,353,113.285
F,2,948211,vowelstep3.wav,None,1000,6,1062216,352,115.285
F,2,948211,sinestep3.wav,None,1000,6,1064216,363,117.285
F,2,948211,vowelstep3.wav,None,1000,6,1066217,340,119.285
F,2,948211,vowelstep7.wav,None,1000,6,1068217,341,121.285
F,2,948211,vowelstep7.wav,None,1000,6,1070217,351,123.285
F,2,948211,vowelstep5.wav,None,1000,6,1072217,351,125.285
F,2,948211,sinestep1.wav,None,1000,6,1074217,352,127.285
F,2,948211,silence.wav,None,1000,6,1076216,351,129.285
F,2,948211,sinestep1.wav,None,1000,6,1078216,362,131.285
F,2,948211,sinestep3.wav,None,1000,6,1080216,341,133.285
F,2,948211,sinestep1_catch.wav,1,479,6,1082216,341,135.285
F,2,948211,sinestep3.wav,None,1000,6,1084217,861,137.285
F,2,948211,sinestep3.wav,None,1000,6,1086217,350,139.285
F,2,948211,silence.wav,None,1000,6,1088217,350,141.285
F,2,948211,silence.wav,None,1000,6,1090217,350,143.285
F,2,948211,sinestep7.wav,None,1000,6,1092217,360,145.285
F,2,948211,sinestep5.wav,None,1000,6,1094217,332,147.285
F,2,948211,vowelstep1.wav,None,1000,6,1096217,340,149.285
F,2,948211,sinestep7.wav,None,1000,6,1098217,339,151.285
F,2,948211,silence.wav,None,1000,6,1100216,338,153.285
F,2,948211,sinestep3_catch.wav,1,629,6,1102217,350,155.285
F,2,948211,vowelstep5.wav,None,1000,6,1104217,721,157.285
F,2,948211,sinestep3.wav,None,1000,6,1106217,350,159.285
F,2,948211,vowelstep5.wav,None,1000,6,1108217,327,161.285
F,2,948211,sinestep3.wav,None,1000,6,1110217,339,163.285
F,2,948211,vowelstep3.wav,None,1000,6,1112217,339,165.285
F,2,948211,vowelstep1.wav,None,1000,6,1114217,349,167.285
F,2,948211,sinestep5.wav,None,1000,6,1116217,349,169.285
F,2,948211,vowelstep5.wav,None,1000,6,1118217,349,171.285
F,2,948211,vowelstep1.wav,None,1000,6,1120218,348,173.285
F,2,948211,vowelstep1.wav,None,1000,6,1122218,338,175.285
F,2,948211,sinestep7.wav,None,1000,6,1124217,338,177.285
F,2,948211,vowelstep1.wav,None,1000,6,1126217,338,179.285
F,2,948211,sinestep5.wav,None,1000,6,1128217,338,181.285
F,2,948211,vowelstep7.wav,None,1000,6,1130217,347,183.285
F,2,948211,sinestep1.wav,None,1000,6,1132217,348,185.285
F,2,948211,vowelstep7.wav,None,1000,6,1134217,358,187.285
F,2,948211,sinestep5.wav,None,1000,6,1136218,338,189.285
F,2,948211,vowelstep5.wav,None,1000,6,1138218,337,191.285
F,2,948211,silence.wav,None,1000,6,1140218,337,193.285
F,2,948211,sinestep7.wav,None,1000,6,1142218,337,195.285
F,2,948211,vowelstep5.wav,None,1000,6,1144218,347,197.285
F,2,948211,vowelstep7.wav,None,1000,6,1146218,347,199.285
F,2,948211,silence.wav,None,1000,6,1148217,347,201.285
F,2,948211,vowelstep1.wav,None,1000,6,1150217,337,203.285
F,2,948211,vowelstep7.wav,None,1000,6,1152217,337,205.285
F,2,948211,vowelstep7.wav,None,1000,6,1154218,337,207.285
F,2,948211,vowelstep3.wav,None,1000,6,1156218,336,209.285
F,2,948211,vowelstep3.wav,None,1000,6,1158218,345,211.285
F,2,948211,silence.wav,None,1000,6,1160218,346,213.285
F,2,948211,sinestep7.wav,None,1000,6,1162218,346,215.285
F,2,948211,sinestep1.wav,None,1000,6,1164218,356,217.285
F,2,948211,silence.wav,None,1000,6,1166218,337,219.285
F,2,948211,vowelstep1.wav,None,1000,6,1168218,337,221.285
F,2,948211,sinestep5_catch.wav,1,578,6,1170218,336,223.285
F,2,948211,sinestep1.wav,None,1000,6,1172219,767,225.285
F,2,948211,silence.wav,None,1000,6,1174218,346,227.285
F,2,948211,sinestep7.wav,None,1000,6,1176218,343,229.285
F,2,948211,sinestep7.wav,None,1000,6,1178218,325,231.285
F,2,948211,silence.wav,None,1000,6,1180218,325,233.285
F,2,948211,vowelstep5.wav,None,1000,6,1182218,335,235.285
F,2,948211,sinestep7.wav,None,1000,6,1184218,335,237.285
F,2,948211,sinestep5.wav,None,1000,6,1186218,347,239.285
F,2,948211,sinestep5.wav,None,1000,6,1188218,345,241.285
F,2,948211,silence.wav,None,1000,6,1190219,344,243.285
F,2,948211,vowelstep3.wav,None,1000,6,1192219,354,245.285
F,2,948211,vowelstep3.wav,None,1000,6,1194219,334,247.285
F,2,948211,silence.wav,None,1000,6,1196219,335,249.285
F,2,948211,sinestep1.wav,None,1000,6,1198218,334,251.285
F,2,948211,sinestep1.wav,None,1000,6,1200218,334,253.285
F,2,948211,vowelstep5.wav,None,1000,6,1202218,343,255.285
F,2,948211,silence.wav,None,1000,6,1204218,344,257.285
F,2,948211,sinestep5.wav,None,1000,6,1206219,355,259.285
F,2,948211,sinestep5.wav,None,1000,6,1208219,324,261.285
F,2,948211,sinestep5.wav,None,1000,6,1210219,332,263.285
F,2,948211,sinestep7.wav,None,1000,6,1212219,333,265.285
F,2,948211,sinestep7_catch.wav,None,1000,6,1214219,343,267.285
F,2,948211,sinestep7_catch.wav,1,376,6,1216219,343,269.285
F,2,948211,sinestep1.wav,None,1000,6,1218219,966,271.285
F,2,948211,vowelstep7.wav,None,1000,6,1220219,352,273.285
F,2,948211,sinestep3.wav,None,1000,6,1222218,333,275.285
F,2,948211,sinestep3.wav,None,1000,6,1224219,333,277.285
F,2,948211,silence.wav,None,1000,6,1226219,331,279.285
F,2,948211,sinestep5_catch.wav,1,174,6,1228219,342,281.285
F,2,948211,sinestep5.wav,None,1000,6,1230219,1168,283.285
F,2,948211,silence.wav,None,1000,6,1232219,342,285.285
F,2,948211,vowelstep5.wav,None,1000,6,1234219,352,287.285
F,2,948211,silence.wav,None,1000,6,1236219,331,289.285
F,2,948211,sinestep1.wav,None,1000,6,1238219,332,291.285
F,2,948211,sinestep3.wav,None,1000,6,1240219,331,293.285
F,2,948211,vowelstep3.wav,None,1000,6,1242220,331,295.285
F,2,948211,silence.wav,None,1000,6,1244220,341,297.285
F,2,948211,sinestep5.wav,None,1000,6,1246219,341,299.285
F,2,948211,vowelstep5.wav,None,1000,6,1248219,342,301.285
F,2,948211,vowelstep5.wav,None,1000,6,1250219,322,303.285
F,2,948211,vowelstep1.wav,None,1000,6,1252219,330,305.285
F,2,948211,sinestep3.wav,None,1000,6,1254219,331,307.285
F,2,948211,silence.wav,None,1000,6,1256219,340,309.285
F,2,948211,sinestep3_catch.wav,1,297,6,1258219,340,311.285
F,2,948211,vowelstep1.wav,None,1000,6,1260220,1043,313.285
F,2,948211,vowelstep7.wav,None,1000,6,1262220,338,315.285
F,2,948211,vowelstep7.wav,None,1000,6,1264220,330,317.285
F,2,948211,vowelstep1.wav,None,1000,6,1266220,330,319.285
J,3,1341201,sinestep5_catch.wav,1,594,6,1341220,0,1.285
J,3,1341201,sinestep5.wav,None,1000,6,1343220,730,3.285
J,3,1341201,sinestep3.wav,None,1000,6,1345220,325,5.285
J,3,1341201,sinestep1.wav,None,1000,6,1347221,325,7.285
J,3,1341201,sinestep7.wav,None,1000,6,1349204,335,9.285
J,3,1341201,vowelstep3.wav,None,1000,6,1351204,335,11.285
J,3,1341201,sinestep1.wav,None,1000,6,1353204,354,13.285
J,3,1341201,vowelstep5.wav,None,1000,6,1355204,344,15.285
J,3,1341201,vowelstep3.wav,None,1000,6,1357221,345,17.285
J,3,1341201,vowelstep1.wav,None,1000,6,1359221,325,19.285
J,3,1341201,vowelstep1.wav,None,1000,6,1361221,324,21.285
J,3,1341201,sinestep3.wav,None,1000,6,1363221,334,23.285
J,3,1341201,silence.wav,None,1000,6,1365205,334,25.285
J,3,1341201,vowelstep7.wav,None,1000,6,1367205,333,27.285
J,3,1341201,sinestep3.wav,None,1000,6,1369205,344,29.285
J,3,1341201,sinestep7.wav,None,1000,6,1371205,345,31.285
J,3,1341201,silence.wav,None,1000,6,1373204,342,33.285
J,3,1341201,vowelstep5.wav,None,1000,6,1375204,355,35.285
J,3,1341201,sinestep1.wav,None,1000,6,1377221,350,37.285
J,3,1341201,sinestep1_catch.wav,1,183,6,1379221,335,39.285
J,3,1341201,sinestep7.wav,None,1000,6,1381205,1150,41.285
J,3,1341201,vowelstep7.wav,None,1000,6,1383205,343,43.285
J,3,1341201,sinestep3_catch.wav,1,363,6,1385205,344,45.285
J,3,1341201,vowelstep3.wav,None,1000,6,1387205,981,47.285
J,3,1341201,vowelstep7.wav,None,1000,6,1389205,343,49.285
J,3,1341201,sinestep1.wav,None,1000,6,1391205,353,51.285
J,3,1341201,vowelstep3.wav,None,1000,6,1393205,353,53.285
J,3,1341201,vowelstep1.wav,None,1000,6,1395221,364,55.285
J,3,1341201,sinestep5.wav,None,1000,6,1397204,344,57.285
J,3,1341201,sinestep5_catch.wav,1,415,6,1399205,343,59.285
J,3,1341201,sinestep5.wav,None,1000,6,1401205,928,61.285
J,3,1341201,vowelstep7.wav,None,1000,6,1403205,352,63.285
J,3,1341201,sinestep7.wav,None,1000,6,1405205,353,65.285
J,3,1341201,vowelstep1.wav,None,1000,6,1407205,353,67.285
J,3,1341201,sinestep7_catch.wav,1,438,6,1409205,332,69.285
J,3,1341201,silence.wav,None,1000,6,1411205,894,71.285
J,3,1341201,vowelstep5.wav,None,1000,6,1413205,342,73.285
J,3,1341201,sinestep5.wav,None,1000,6,1415205,343,75.285
J,3,1341201,sinestep5.wav,None,1000,6,1417206,343,77.285
J,3,1341201,vowelstep3.wav,None,1000,6,1419206,351,79.285
J,3,1341201,vowelstep5.wav,None,1000,6,1421206,352,81.285
J,3,1341201,sinestep3.wav,None,1000,6,1423205,352,83.285
J,3,1341201,silence.wav,None,1000,6,1425205,361,85.285
J,3,1341201,vowelstep3.wav,None,1000,6,1427205,341,87.285
J,3,1341201,vowelstep7.wav,None,1000,6,1429205,341,89.285
J,3,1341201,silence.wav,None,1000,6,1431205,341,91.285
J,3,1341201,sinestep3.wav,None,1000,6,1433205,350,93.285
J,3,1341201,silence.wav,None,1000,6,1435206,338,95.285
J,3,1341201,sinestep1.wav,None,1000,6,1437206,359,97.285
J,3,1341201,sinestep5_catch.wav,1,709,6,1439206,329,99.285
J,3,1341201,sinestep7.wav,None,1000,6,1441206,628,101.285
J,3,1341201,sinestep5.wav,None,1000,6,1443206,339,103.285
J,3,1341201,sinestep5.wav,None,1000,6,1445205,340,105.285
J,3,1341201,sinestep3.wav,None,1000,6,1447205,349,107.285
J,3,1341201,sinestep3_catch.wav,1,756,6,1449205,349,109.285
J,3,1341201,sinestep3.wav,None,1000,6,1451206,594,111.285
J,3,1341201,silence.wav,None,1000,6,1453206,358,113.285
J,3,1341201,sinestep1.wav,None,1000,6,1455206,336,115.285
J,3,1341201,silence.wav,None,1000,6,1457206,340,117.285
J,3,1341201,vowelstep3.wav,None,1000,6,1459206,339,119.285
J,3,1341201,vowelstep5.wav,None,1000,6,1461206,349,121.285
J,3,1341201,vowelstep7.wav,None,1000,6,1463206,349,123.285
J,3,1341201,silence.wav,None,1000,6,1465206,358,125.285
J,3,1341201,sinestep1.wav,None,1000,6,1467206,358,127.285
J,3,1341201,sinestep3.wav,None,1000,6,1469207,339,129.285
J,3,1341201,sinestep7.wav,None,1000,6,1471206,337,131.285
J,3,1341201,silence.wav,None,1000,6,1473206,338,133.285
J,3,1341201,sinestep1.wav,None,1000,6,1475206,347,135.285
J,3,1341201,vowelstep7.wav,None,1000,6,1477206,347,137.285
J,3,1341201,sinestep5.wav,None,1000,6,1479206,348,139.285
J,3,1341201,vowelstep1.wav,None,1000,6,1481206,358,141.285
J,3,1341201,vowelstep7.wav,None,1000,6,1483206,337,143.285
J,3,1341201,vowelstep3.wav,None,1000,6,1485206,338,145.285
J,3,1341201,vowelstep3.wav,None,1000,6,1487207,338,147.285
J,3,1341201,sinestep7.wav,None,1000,6,1489207,347,149.285
J,3,1341201,vowelstep5.wav,None,1000,6,1491207,347,151.285
J,3,1341201,silence.wav,None,1000,6,1493207,347,153.285
J,3,1341201,sinestep1.wav,None,1000,6,1495206,346,155.285
J,3,1341201,sinestep3.wav,None,1000,6,1497206,337,157.285
J,3,1341201,silence.wav,None,1000,6,1499206,337,159.285
J,3,1341201,sinestep1.wav,None,1000,6,1501206,337,161.285
J,3,1341201,vowelstep7.wav,None,1000,6,1503207,347,163.285
J,3,1341201,vowelstep7.wav,None,1000,6,1505207,345,165.285
J,3,1341201,sinestep1_catch.wav,1,279,6,1507207,346,167.285
J,3,1341201,vowelstep1_catch.wav,1,835,6,1509207,1047,169.285
J,3,1341201,vowelstep1.wav,None,1000,6,1511207,500,171.285
J,3,1341201,vowelstep7.wav,None,1000,6,1513207,336,173.285
J,3,1341201,sinestep1.wav,None,1000,6,1515207,337,175.285
J,3,1341201,vowelstep5.wav,None,1000,6,1517207,346,177.285
J,3,1341201,vowelstep5.wav,None,1000,6,1519206,345,179.285
J,3,1341201,sinestep5.wav,None,1000,6,1521207,346,181.285
J,3,1341201,sinestep7.wav,None,1000,6,1523207,355,183.285
J,3,1341201,sinestep7.wav,None,1000,6,1525207,334,185.285
J,3,1341201,sinestep1.wav,None,1000,6,1527207,336,187.285
J,3,1341201,vowelstep1.wav,None,1000,6,1529207,336,189.285
J,3,1341201,silence.wav,None,1000,6,1531207,344,191.285
J,3,1341201,sinestep5.wav,None,1000,6,1533207,346,193.285
J,3,1341201,vowelstep5.wav,None,1000,6,1535207,345,195.285
J,3,1341201,vowelstep1.wav,None,1000,6,1537207,354,197.285
J,3,1341201,vowelstep1.wav,None,1000,6,1539208,335,199.285
J,3,1341201,sinestep3.wav,None,1000,6,1541208,333,201.285
J,3,1341201,sinestep3.wav,None,1000,6,1543207,334,203.285
J,3,1341201,silence.wav,None,1000,6,1545207,344,205.285
J,3,1341201,sinestep5.wav,None,1000,6,1547207,343,207.285
J,3,1341201,vowelstep1.wav,None,1000,6,1549207,344,209.285
J,3,1341201,vowelstep5.wav,None,1000,6,1551207,343,211.285
J,3,1341201,vowelstep3.wav,None,1000,6,1553207,324,213.285
J,3,1341201,vowelstep3.wav,None,1000,6,1555207,335,215.285
J,3,1341201,silence.wav,None,1000,6,1557208,332,217.285
J,3,1341201,sinestep1.wav,None,1000,6,1559208,343,219.285
J,3,1341201,vowelstep3.wav,None,1000,6,1561208,343,221.285
J,3,1341201,sinestep7.wav,None,1000,6,1563208,342,223.285
J,3,1341201,vowelstep7.wav,None,1000,6,1565208,343,225.285
J,3,1341201,silence.wav,None,1000,6,1567207,333,227.285
J,3,1341201,vowelstep5.wav,None,1000,6,1569207,332,229.285
J,3,1341201,silence.wav,None,1000,6,1571207,332,231.285
J,3,1341201,sinestep3.wav,None,1000,6,1573208,332,233.285
J,3,1341201,vowelstep5.wav,None,1000,6,1575208,341,235.285
J,3,1341201,vowelstep3.wav,None,1000,6,1577208,340,237.285
J,3,1341201,vowelstep5.wav,None,1000,6,1579208,340,239.285
J,3,1341201,vowelstep7.wav,None,1000,6,1581208,321,241.285
J,3,1341201,vowelstep1.wav,None,1000,6,1583208,331,243.285
J,3,1341201,sinestep7.wav,None,1000,6,1585208,332,245.285
J,3,1341201,sinestep7.wav,None,1000,6,1587208,331,247.285
J,3,1341201,silence.wav,None,1000,6,1589208,342,249.285
J,3,1341201,vowelstep1.wav,None,1000,6,1591208,341,251.285
J,3,1341201,vowelstep3_catch.wav,1,377,6,1593208,340,253.285
J,3,1341201,vowelstep1.wav,None,1000,6,1595208,973,255.285
J,3,1341201,vowelstep5_catch.wav,1,759,6,1597208,350,257.285
J,3,1341201,silence.wav,None,1000,6,1599208,591,259.285
J,3,1341201,sinestep5.wav,None,1000,6,1601208,330,261.285
J,3,1341201,vowelstep1.wav,None,1000,6,1603208,340,263.285
J,3,1341201,sinestep5.wav,None,1000,6,1605208,341,265.285
J,3,1341201,vowelstep3.wav,None,1000,6,1607208,338,267.285
J,3,1341201,sinestep5.wav,None,1000,6,1609209,350,269.285
J,3,1341201,sinestep7.wav,None,1000,6,1611209,349,271.285
J,3,1341201,silence.wav,None,1000,6,1613209,329,273.285
J,3,1341201,vowelstep7_catch.wav,1,572,6,1615208,360,275.285
J,3,1341201,sinestep3.wav,None,1000,6,1617208,767,277.285
J,3,1341201,vowelstep5.wav,None,1000,6,1619208,340,279.285
J,3,1341201,silence.wav,None,1000,6,1621208,339,281.285
J,3,1341201,silence.wav,None,1000,6,1623208,349,283.285
J,3,1341201,silence.wav,None,1000,6,1625208,349,285.285
J,3,1341201,vowelstep7.wav,None,1000,6,1627209,348,287.285
J,3,1341201,sinestep3.wav,None,1000,6,1629209,359,289.285
J,3,1341201,vowelstep5_catch.wav,1,543,6,1631209,339,291.285
J,3,1341201,silence.wav,None,1000,6,1633209,796,293.285
J,3,1341201,sinestep7.wav,None,1000,6,1635209,339,295.285
J,3,1341201,vowelstep1.wav,None,1000,6,1637209,338,297.285
J,3,1341201,silence.wav,None,1000,6,1639208,348,299.285
J,3,1341201,sinestep1.wav,None,1000,6,1641208,348,301.285
J,3,1341201,sinestep5.wav,None,1000,6,1643209,358,303.285
J,3,1341201,vowelstep5.wav,None,1000,6,1645209,327,305.285
J,3,1341201,vowelstep3.wav,None,1000,6,1647209,335,307.285
J,3,1341201,sinestep7.wav,None,1000,6,1649209,337,309.285
J,3,1341201,vowelstep7.wav,None,1000,6,1651209,347,311.285
J,3,1341201,vowelstep3_catch.wav,1,563,6,1653209,347,313.285
J,3,1341201,vowelstep1_catch.wav,1,631,6,1655209,784,315.285
J,3,1341201,sinestep3.wav,None,1000,6,1657209,717,317.285
J,3,1341201,sinestep1.wav,None,1000,6,1659209,357,319.285
C,4,1739944,sinestep1.wav,None,1000,6,1739960,0,1.285
C,4,1739944,vowelstep1.wav,None,1000,6,1741960,324,3.285
C,4,1739944,sinestep1.wav,None,1000,6,1743960,325,5.285
C,4,1739944,sinestep1.wav,None,1000,6,1745960,325,7.285
C,4,1739944,vowelstep1.wav,None,1000,6,1747961,334,9.285
C,4,1739944,sinestep1.wav,None,1000,6,1749961,334,11.285
C,4,1739944,sinestep7.wav,None,1000,6,1751961,333,13.285
C,4,1739944,vowelstep7.wav,None,1000,6,1753961,344,15.285
C,4,1739944,vowelstep3.wav,None,1000,6,1755961,324,17.285
C,4,1739944,vowelstep5.wav,None,1000,6,1757961,324,19.285
C,4,1739944,silence.wav,None,1000,6,1759960,325,21.285
C,4,1739944,sinestep3.wav,None,1000,6,1761960,334,23.285
C,4,1739944,vowelstep5.wav,None,1000,6,1763960,335,25.285
C,4,1739944,sinestep1.wav,None,1000,6,1765961,333,27.285
C,4,1739944,vowelstep1.wav,None,1000,6,1767961,343,29.285
C,4,1739944,vowelstep7.wav,None,1000,6,1769961,313,31.285
C,4,1739944,vowelstep3.wav,None,1000,6,1771961,313,33.285
C,4,1739944,sinestep1.wav,None,1000,6,1773961,323,35.285
C,4,1739944,sinestep5.wav,None,1000,6,1775961,330,37.285
C,4,1739944,silence.wav,None,1000,6,1777961,334,39.285
C,4,1739944,vowelstep7.wav,None,1000,6,1779961,333,41.285
C,4,1739944,vowelstep5.wav,None,1000,6,1781961,342,43.285
C,4,1739944,sinestep5.wav,None,1000,6,1783961,312,45.285
C,4,1739944,silence.wav,None,1000,6,1785961,322,47.285
C,4,1739944,sinestep5.wav,None,1000,6,1787961,321,49.285
C,4,1739944,sinestep1.wav,None,1000,6,1789961,332,51.285
C,4,1739944,silence.wav,None,1000,6,1791961,332,53.285
C,4,1739944,vowelstep1.wav,None,1000,6,1793961,332,55.285
C,4,1739944,vowelstep1.wav,None,1000,6,1795961,332,57.285
C,4,1739944,sinestep1.wav,None,1000,6,1797961,321,59.285
C,4,1739944,silence.wav,None,1000,6,1799961,322,61.285
C,4,1739944,vowelstep5.wav,None,1000,6,1801962,321,63.285
C,4,1739944,vowelstep3.wav,None,1000,6,1803962,331,65.285
C,4,1739944,vowelstep3.wav,None,1000,6,1805962,331,67.285
C,4,1739944,vowelstep7.wav,None,1000,6,1807961,332,69.285
C,4,1739944,silence.wav,None,1000,6,1809961,311,71.285
C,4,1739944,vowelstep3.wav,None,1000,6,1811961,311,73.285
C,4,1739944,silence.wav,None,1000,6,1813961,322,75.285
C,4,1739944,sinestep5.wav,None,1000,6,1815961,321,77.285
C,4,1739944,vowelstep7.wav,None,1000,6,1817962,331,79.285
C,4,1739944,vowelstep1_catch.wav,2,404,6,1819962,330,81.285
C,4,1739944,vowelstep3.wav,None,1000,6,1821962,925,83.285
C,4,1739944,sinestep7.wav,None,1000,6,1823962,330,85.285
C,4,1739944,vowelstep3.wav,None,1000,6,1825962,319,87.285
C,4,1739944,sinestep1.wav,None,1000,6,1827962,320,89.285
C,4,1739944,sinestep7.wav,None,1000,6,1829962,320,91.285
C,4,1739944,sinestep7.wav,None,1000,6,1831961,318,93.285
C,4,1739944,sinestep3.wav,None,1000,6,1833961,329,95.285
C,4,1739944,vowelstep3_catch.wav,2,649,6,1835962,329,97.285
C,4,1739944,sinestep5.wav,None,1000,6,1837962,679,99.285
C,4,1739944,sinestep5.wav,None,1000,6,1839962,339,101.285
C,4,1739944,vowelstep3.wav,None,1000,6,1841962,318,103.285
C,4,1739944,vowelstep5.wav,None,1000,6,1843962,319,105.285
C,4,1739944,sinestep1.wav,None,1000,6,1845962,329,107.285
C,4,1739944,sinestep3.wav,None,1000,6,1847962,328,109.285
C,4,1739944,vowelstep5.wav,None,1000,6,1849962,328,111.285
C,4,1739944,vowelstep7.wav,None,1000,6,1851962,328,113.285
C,4,1739944,vowelstep1.wav,None,1000,6,1853963,308,115.285
C,4,1739944,sinestep7.wav,None,1000,6,1855962,338,117.285
C,4,1739944,sinestep3.wav,None,1000,6,1857962,337,119.285
C,4,1739944,vowelstep1.wav,None,1000,6,1859962,348,121.285
C,4,1739944,vowelstep1.wav,None,1000,6,1861962,327,123.285
C,4,1739944,sinestep3.wav,None,1000,6,1863962,327,125.285
C,4,1739944,silence.wav,None,1000,6,1865962,329,127.285
C,4,1739944,silence.wav,None,1000,6,1867962,337,129.285
C,4,1739944,vowelstep5_catch.wav,2,296,6,1869962,338,131.285
C,4,1739944,vowelstep5.wav,None,1000,6,1871963,1040,133.285
C,4,1739944,silence.wav,None,1000,6,1873963,317,135.285
C,4,1739944,sinestep1.wav,None,1000,6,1875963,317,137.285
C,4,1739944,vowelstep7.wav,None,1000,6,1877963,327,139.285
C,4,1739944,sinestep7.wav,None,1000,6,1879962,327,141.285
C,4,1739944,silence.wav,None,1000,6,1881962,337,143.285
C,4,1739944,silence.wav,None,1000,6,1883962,336,145.285
C,4,1739944,sinestep7.wav,None,1000,6,1885962,337,147.285
C,4,1739944,vowelstep1.wav,None,1000,6,1887963,347,149.285
C,4,1739944,vowelstep5.wav,None,1000,6,1889963,325,151.285
C,4,1739944,vowelstep5.wav,None,1000,6,1891963,326,153.285
C,4,1739944,vowelstep7.wav,None,1000,6,1893963,325,155.285
C,4,1739944,sinestep7.wav,None,1000,6,1895963,336,157.285
C,4,1739944,vowelstep1.wav,None,1000,6,1897963,335,159.285
C,4,1739944,vowelstep3.wav,None,1000,6,1899963,335,161.285
C,4,1739944,sinestep5.wav,None,1000,6,1901963,346,163.285
C,4,1739944,sinestep7.wav,None,1000,6,1903962,315,165.285
C,4,1739944,sinestep1.wav,None,1000,6,1905963,326,167.285
C,4,1739944,sinestep7.wav,None,1000,6,1907947,325,169.285
C,4,1739944,sinestep3.wav,None,1000,6,1909963,334,171.285
C,4,1739944,silence.wav,None,1000,6,1911963,334,173.285
C,4,1739944,vowelstep7.wav,None,1000,6,1913963,334,175.285
C,4,1739944,sinestep7.wav,None,1000,6,1915963,344,177.285
C,4,1739944,sinestep5.wav,None,1000,6,1917963,324,179.285
C,4,1739944,vowelstep7.wav,None,1000,6,1919963,324,181.285
C,4,1739944,vowelstep5.wav,None,1000,6,1921963,324,183.285
C,4,1739944,vowelstep3.wav,None,1000,6,1923947,333,185.285
C,4,1739944,vowelstep7_catch.wav,2,287,6,1925947,353,187.285
C,4,1739944,vowelstep3.wav,None,1000,6,1927963,1066,189.285
C,4,1739944,vowelstep5.wav,None,1000,6,1929963,341,191.285
C,4,1739944,vowelstep7.wav,None,1000,6,1931963,323,193.285
C,4,1739944,vowelstep7_catch.wav,2,412,6,1933963,323,195.285
C,4,1739944,vowelstep5_catch.wav,2,114,6,1935963,911,197.285
C,4,1739944,sinestep5.wav,None,1000,6,1937963,1209,199.285
C,4,1739944,sinestep3.wav,None,1000,6,1939963,331,201.285
C,4,1739944,vowelstep3_catch.wav,2,673,6,1941947,331,203.285
C,4,1739944,vowelstep1_catch.wav,None,1000,6,1943947,659,205.285
C,4,1739944,vowelstep5.wav,None,1000,6,1945947,342,207.285
C,4,1739944,vowelstep1.wav,None,1000,6,1947964,343,209.285
C,4,1739944,sinestep1_catch.wav,2,175,6,1949964,322,211.285
C,4,1739944,sinestep3_catch.wav,2,193,6,1951963,1146,213.285
C,4,1739944,sinestep1.wav,None,1000,6,1953963,1139,215.285
C,4,1739944,vowelstep3.wav,None,1000,6,1955947,332,217.285
C,4,1739944,sinestep3.wav,None,1000,6,1957948,332,219.285
C,4,1739944,vowelstep5.wav,None,1000,6,1959947,341,221.285
C,4,1739944,sinestep7.wav,None,1000,6,1961947,341,223.285
C,4,1739944,sinestep1.wav,None,1000,6,1963947,341,225.285
C,4,1739944,sinestep5_catch.wav,2,232,6,1965964,351,227.285
C,4,1739944,vowelstep7.wav,None,1000,6,1967964,1098,229.285
C,4,1739944,vowelstep3.wav,None,1000,6,1969964,331,231.285
C,4,1739944,silence.wav,None,1000,6,1971947,332,233.285
C,4,1739944,vowelstep1.wav,None,1000,6,1973947,342,235.285
C,4,1739944,sinestep5.wav,None,1000,6,1975948,341,237.285
C,4,1739944,sinestep1.wav,None,1000,6,1977948,340,239.285
C,4,1739944,vowelstep7.wav,None,1000,6,1979948,350,241.285
C,4,1739944,sinestep3.wav,None,1000,6,1981948,350,243.285
C,4,1739944,sinestep3.wav,None,1000,6,1983964,348,245.285
C,4,1739944,sinestep5.wav,None,1000,6,1985964,330,247.285
C,4,1739944,vowelstep3.wav,None,1000,6,1987947,340,249.285
C,4,1739944,sinestep3.wav,None,1000,6,1989947,340,251.285
C,4,1739944,silence.wav,None,1000,6,1991947,340,253.285
C,4,1739944,sinestep3.wav,None,1000,6,1993948,348,255.285
C,4,1739944,vowelstep1.wav,None,1000,6,1995948,349,257.285
C,4,1739944,silence.wav,None,1000,6,1997948,349,259.285
C,4,1739944,vowelstep1.wav,None,1000,6,1999948,359,261.285
C,4,1739944,silence.wav,None,1000,6,2001964,339,263.285
C,4,1739944,sinestep7.wav,None,1000,6,2003948,319,265.285
C,4,1739944,sinestep3.wav,None,1000,6,2005948,339,267.285
C,4,1739944,vowelstep1.wav,None,1000,6,2007947,349,269.285
C,4,1739944,sinestep7.wav,None,1000,6,2009947,349,271.285
C,4,1739944,sinestep7_catch.wav,2,344,6,2011948,348,273.285
C,4,1739944,vowelstep5.wav,None,1000,6,2013948,1010,275.285
C,4,1739944,silence.wav,None,1000,6,2015948,338,277.285
C,4,1739944,silence.wav,None,1000,6,2017948,338,279.285
C,4,1739944,sinestep3.wav,None,1000,6,2019948,338,281.285
C,4,1739944,vowelstep7.wav,None,1000,6,2021948,348,283.285
C,4,1739944,sinestep5.wav,None,1000,6,2023948,348,285.285
C,4,1739944,sinestep5.wav,None,1000,6,2025948,348,287.285
C,4,1739944,vowelstep3.wav,None,1000,6,2027949,357,289.285
C,4,1739944,sinestep3.wav,None,1000,6,2029949,327,291.285
C,4,1739944,silence.wav,None,1000,6,2031948,336,293.285
C,4,1739944,silence.wav,None,1000,6,2033948,337,295.285
C,4,1739944,vowelstep7.wav,None,1000,6,2035948,347,297.285
C,4,1739944,silence.wav,None,1000,6,2037948,345,299.285
C,4,1739944,vowelstep5.wav,None,1000,6,2039948,347,301.285
C,4,1739944,sinestep5.wav,None,1000,6,2041948,346,303.285
C,4,1739944,silence.wav,None,1000,6,2043948,357,305.285
C,4,1739944,silence.wav,None,1000,6,2045949,337,307.285
C,4,1739944,silence.wav,None,1000,6,2047949,336,309.285
C,4,1739944,sinestep7_catch.wav,2,342,6,2049949,346,311.285
C,4,1739944,sinestep7.wav,None,1000,6,2051949,1002,313.285
C,4,1739944,sinestep5_catch.wav,2,685,6,2053949,345,315.285
C,4,1739944,sinestep5.wav,None,1000,6,2055948,670,317.285
C,4,1739944,sinestep3_catch.wav,2,420,6,2057948,325,319.285
A,5,2146434,sinestep5_catch.wav,2,591,6,2146450,0,1.285
A,5,2146434,vowelstep1.wav,None,1000,6,2148450,738,3.285
A,5,2146434,vowelstep3.wav,None,1000,6,2150451,318,5.285
A,5,2146434,sinestep1.wav,None,1000,6,2152450,320,7.285
A,5,2146434,sinestep5_catch.wav,2,227,6,2154450,338,9.285
A,5,2146434,sinestep7.wav,None,1000,6,2156450,1093,11.285
A,5,2146434,sinestep3.wav,None,1000,6,2158450,329,13.285
A,5,2146434,silence.wav,None,1000,6,2160450,328,15.285
A,5,2146434,vowelstep7.wav,None,1000,6,2162450,339,17.285
A,5,2146434,sinestep7.wav,None,1000,6,2164450,339,19.285
A,5,2146434,vowelstep5_catch.wav,2,802,6,2166450,339,21.285
A,5,2146434,sinestep7.wav,None,1000,6,2168451,537,23.285
A,5,2146434,sinestep3.wav,None,1000,6,2170451,318,25.285
A,5,2146434,silence.wav,None,1000,6,2172451,329,27.285
A,5,2146434,sinestep3.wav,None,1000,6,2174451,328,29.285
A,5,2146434,sinestep5_catch.wav,2,124,6,2176450,328,31.285
A,5,2146434,sinestep1.wav,None,1000,6,2178450,1214,33.285
A,5,2146434,sinestep1.wav,None,1000,6,2180450,338,35.285
A,5,2146434,sinestep5.wav,None,1000,6,2182450,339,37.285
A,5,2146434,vowelstep3.wav,None,1000,6,2184450,349,39.285
A,5,2146434,vowelstep5.wav,None,1000,6,2186451,328,41.285
A,5,2146434,vowelstep3.wav,None,1000,6,2188451,327,43.285
A,5,2146434,vowelstep1.wav,None,1000,6,2190451,327,45.285
A,5,2146434,vowelstep3.wav,None,1000,6,2192451,328,47.285
A,5,2146434,sinestep3.wav,None,1000,6,2194451,337,49.285
A,5,2146434,sinestep7.wav,None,1000,6,2196451,337,51.285
A,5,2146434,sinestep5.wav,None,1000,6,2198451,318,53.285
A,5,2146434,vowelstep7_catch.wav,2,163,6,2200450,327,55.285
A,5,2146434,silence.wav,None,1000,6,2202450,1163,57.285
A,5,2146434,vowelstep3.wav,None,1000,6,2204451,327,59.285
A,5,2146434,vowelstep1.wav,None,1000,6,2206451,336,61.285
A,5,2146434,silence.wav,None,1000,6,2208451,337,63.285
A,5,2146434,sinestep3.wav,None,1000,6,2210451,335,65.285
A,5,2146434,sinestep7.wav,None,1000,6,2212451,346,67.285
A,5,2146434,sinestep5.wav,None,1000,6,2214451,327,69.285
A,5,2146434,sinestep5.wav,None,1000,6,2216451,326,71.285
A,5,2146434,sinestep7.wav,None,1000,6,2218451,327,73.285
A,5,2146434,sinestep1.wav,None,1000,6,2220452,325,75.285
A,5,2146434,sinestep5.wav,None,1000,6,2222452,336,77.285
A,5,2146434,vowelstep1.wav,None,1000,6,2224451,344,79.285
A,5,2146434,sinestep1.wav,None,1000,6,2226451,345,81.285
A,5,2146434,vowelstep5.wav,None,1000,6,2228451,326,83.285
A,5,2146434,sinestep1.wav,None,1000,6,2230451,325,85.285
A,5,2146434,silence.wav,None,1000,6,2232451,325,87.285
A,5,2146434,vowelstep1.wav,None,1000,6,2234451,335,89.285
A,5,2146434,sinestep3.wav,None,1000,6,2236451,335,91.285
A,5,2146434,vowelstep5.wav,None,1000,6,2238452,334,93.285
A,5,2146434,vowelstep5.wav,None,1000,6,2240452,344,95.285
A,5,2146434,vowelstep5.wav,None,1000,6,2242452,324,97.285
A,5,2146434,vowelstep7.wav,None,1000,6,2244452,324,99.285
A,5,2146434,vowelstep3.wav,None,1000,6,2246452,324,101.285
A,5,2146434,sinestep1.wav,None,1000,6,2248451,324,103.285
A,5,2146434,sinestep1.wav,None,1000,6,2250451,334,105.285
A,5,2146434,vowelstep7.wav,None,1000,6,2252451,334,107.285
A,5,2146434,vowelstep1.wav,None,1000,6,2254451,333,109.285
A,5,2146434,vowelstep7.wav,None,1000,6,2256452,344,111.285
A,5,2146434,silence.wav,None,1000,6,2258452,324,113.285
A,5,2146434,sinestep1.wav,None,1000,6,2260452,323,115.285
A,5,2146434,vowelstep1.wav,None,1000,6,2262452,323,117.285
A,5,2146434,silence.wav,None,1000,6,2264452,333,119.285
A,5,2146434,vowelstep1.wav,None,1000,6,2266452,333,121.285
A,5,2146434,vowelstep3.wav,None,1000,6,2268452,343,123.285
A,5,2146434,vowelstep1.wav,None,1000,6,2270452,313,125.285
A,5,2146434,sinestep7.wav,None,1000,6,2272452,321,127.285
A,5,2146434,silence.wav,None,1000,6,2274452,322,129.285
A,5,2146434,vowelstep1.wav,None,1000,6,2276452,332,131.285
A,5,2146434,silence.wav,None,1000,6,2278452,332,133.285
A,5,2146434,sinestep7.wav,None,1000,6,2280452,332,135.285
A,5,2146434,vowelstep5.wav,None,1000,6,2282452,332,137.285
A,5,2146434,sinestep7.wav,None,1000,6,2284452,342,139.285
A,5,2146434,sinestep3.wav,None,1000,6,2286452,323,141.285
A,5,2146434,vowelstep5.wav,None,1000,6,2288452,322,143.285
A,5,2146434,silence.wav,None,1000,6,2290453,320,145.285
A,5,2146434,sinestep3.wav,None,1000,6,2292453,330,147.285
A,5,2146434,sinestep5.wav,None,1000,6,2294453,331,149.285
A,5,2146434,sinestep3.wav,None,1000,6,2296452,331,151.285
A,5,2146434,vowelstep3.wav,None,1000,6,2298452,321,153.285
A,5,2146434,sinestep3.wav,None,1000,6,2300452,321,155.285
A,5,2146434,vowelstep7_catch.wav,2,225,6,2302452,320,157.285
A,5,2146434,vowelstep7.wav,None,1000,6,2304452,1106,159.285
A,5,2146434,vowelstep5.wav,None,1000,6,2306452,331,161.285
A,5,2146434,sinestep5.wav,None,1000,6,2308453,331,163.285
A,5,2146434,silence.wav,None,1000,6,2310453,330,165.285
A,5,2146434,sinestep5.wav,None,1000,6,2312453,310,167.285
A,5,2146434,vowelstep5_catch.wav,2,299,6,2314453,320,169.285
A,5,2146434,silence.wav,None,1000,6,2316453,1021,171.285
A,5,2146434,sinestep7.wav,None,1000,6,2318453,319,173.285
A,5,2146434,sinestep5.wav,None,1000,6,2320453,331,175.285
A,5,2146434,sinestep7.wav,None,1000,6,2322452,329,177.285
A,5,2146434,vowelstep3.wav,None,1000,6,2324452,329,179.285
A,5,2146434,sinestep5.wav,None,1000,6,2326453,339,181.285
A,5,2146434,vowelstep1.wav,None,1000,6,2328453,318,183.285
A,5,2146434,vowelstep5.wav,None,1000,6,2330453,319,185.285
A,5,2146434,sinestep5.wav,None,1000,6,2332453,319,187.285
A,5,2146434,vowelstep1.wav,None,1000,6,2334453,319,189.285
A,5,2146434,silence.wav,None,1000,6,2336453,329,191.285
A,5,2146434,sinestep1.wav,None,1000,6,2338453,328,193.285
A,5,2146434,vowelstep5.wav,None,1000,6,2340453,309,195.285
A,5,2146434,sinestep3.wav,None,1000,6,2342454,319,197.285
A,5,2146434,silence.wav,None,1000,6,2344453,317,199.285
A,5,2146434,vowelstep3.wav,None,1000,6,2346437,318,201.285
A,5,2146434,vowelstep3_catch.wav,2,184,6,2348437,347,203.285
A,5,2146434,vowelstep5.wav,None,1000,6,2350453,1163,205.285
A,5,2146434,vowelstep1_catch.wav,2,208,6,2352453,327,207.285
A,5,2146434,silence.wav,None,1000,6,2354453,1118,209.285
A,5,2146434,sinestep3.wav,None,1000,6,2356453,318,211.285
A,5,2146434,vowelstep5.wav,None,1000,6,2358453,318,213.285
A,5,2146434,silence.wav,2,318,6,2360454,317,215.285
A,5,2146434,sinestep5.wav,None,1000,6,2362437,1008,217.285
A,5,2146434,vowelstep7.wav,None,1000,6,2364437,347,219.285
A,5,2146434,silence.wav,None,1000,6,2366437,346,221.285
A,5,2146434,vowelstep3.wav,None,1000,6,2368454,337,223.285
A,5,2146434,sinestep7.wav,None,1000,6,2370453,316,225.285
A,5,2146434,silence.wav,None,1000,6,2372453,309,227.285
A,5,2146434,vowelstep3.wav,None,1000,6,2374453,316,229.285
A,5,2146434,vowelstep5.wav,None,1000,6,2376453,326,231.285
A,5,2146434,vowelstep7.wav,None,1000,6,2378437,327,233.285
A,5,2146434,vowelstep3.wav,None,1000,6,2380437,356,235.285
A,5,2146434,vowelstep5.wav,None,1000,6,2382437,335,237.285
A,5,2146434,sinestep1_catch.wav,2,198,6,2384437,335,239.285
A,5,2146434,sinestep3.wav,None,1000,6,2386454,1136,241.285
A,5,2146434,sinestep1.wav,None,1000,6,2388454,316,243.285
A,5,2146434,sinestep3_catch.wav,2,175,6,2390454,325,245.285
A,5,2146434,sinestep7.wav,None,1000,6,2392454,1149,247.285
A,5,2146434,vowelstep1.wav,None,1000,6,2394437,326,249.285
A,5,2146434,sinestep3.wav,None,1000,6,2396438,334,251.285
A,5,2146434,vowelstep7.wav,None,1000,6,2398438,335,253.285
A,5,2146434,silence.wav,None,1000,6,2400438,335,255.285
A,5,2146434,sinestep1.wav,None,1000,6,2402437,342,257.285
A,5,2146434,silence.wav,None,1000,6,2404454,345,259.285
A,5,2146434,vowelstep5.wav,None,1000,6,2406454,324,261.285
A,5,2146434,sinestep5_catch.wav,2,147,6,2408454,325,263.285
A,5,2146434,vowelstep7.wav,None,1000,6,2410437,1177,265.285
A,5,2146434,sinestep3.wav,None,1000,6,2412438,331,267.285
A,5,2146434,vowelstep1.wav,None,1000,6,2414438,338,269.285
A,5,2146434,vowelstep3.wav,None,1000,6,2416438,339,271.285
A,5,2146434,sinestep7_catch.wav,2,194,6,2418438,340,273.285
A,5,2146434,silence.wav,None,1000,6,2420438,1154,275.285
A,5,2146434,vowelstep7.wav,None,1000,6,2422438,349,277.285
A,5,2146434,sinestep7.wav,None,1000,6,2424454,349,279.285
A,5,2146434,sinestep1.wav,None,1000,6,2426437,328,281.285
A,5,2146434,vowelstep7.wav,None,1000,6,2428437,339,283.285
A,5,2146434,sinestep5.wav,None,1000,6,2430438,338,285.285
A,5,2146434,sinestep5.wav,None,1000,6,2432438,337,287.285
A,5,2146434,sinestep7_catch.wav,2,288,6,2434438,347,289.285
A,5,2146434,sinestep5.wav,None,1000,6,2436438,1059,291.285
A,5,2146434,silence.wav,None,1000,6,2438438,348,293.285
A,5,2146434,vowelstep3.wav,None,1000,6,2440438,357,295.285
A,5,2146434,silence.wav,None,1000,6,2442438,327,297.285
A,5,2146434,vowelstep1.wav,None,1000,6,2444438,337,299.285
A,5,2146434,sinestep1.wav,None,1000,6,2446438,337,301.285
A,5,2146434,sinestep7.wav,None,1000,6,2448439,338,303.285
A,5,2146434,vowelstep7.wav,None,1000,6,2450438,346,305.285
A,5,2146434,sinestep1_catch.wav,2,110,6,2452438,347,307.285
A,5,2146434,silence.wav,None,1000,6,2454438,1237,309.285
A,5,2146434,silence.wav,None,1000,6,2456438,326,311.285
A,5,2146434,vowelstep7.wav,None,1000,6,2458438,337,313.285
A,5,2146434,sinestep1.wav,None,1000,6,2460438,337,315.285
A,5,2146434,vowelstep7.wav,None,1000,6,2462438,346,317.285
A,5,2146434,vowelstep7.wav,None,1000,6,2464438,346,319.285
B,6,2554685,vowelstep5.wav,None,1000,6,2554690,0,1.285
B,6,2554685,silence.wav,None,1000,6,2556690,340,3.285
B,6,2554685,sinestep7.wav,None,1000,6,2558690,341,5.285
B,6,2554685,vowelstep1_catch.wav,2,218,6,2560690,331,7.285
B,6,2554685,vowelstep7.wav,None,1000,6,2562690,1114,9.285
B,6,2554685,vowelstep3.wav,None,1000,6,2564690,331,11.285
B,6,2554685,vowelstep7.wav,None,1000,6,2566690,340,13.285
B,6,2554685,vowelstep5.wav,None,1000,6,2568690,340,15.285
B,6,2554685,vowelstep7.wav,None,1000,6,2570690,341,17.285
B,6,2554685,vowelstep3.wav,None,1000,6,2572690,348,19.285
B,6,2554685,silence.wav,None,1000,6,2574690,330,21.285
B,6,2554685,silence.wav,None,1000,6,2576690,329,23.285
B,6,2554685,sinestep5.wav,None,1000,6,2578690,330,25.285
B,6,2554685,sinestep1.wav,None,1000,6,2580690,340,27.285
B,6,2554685,vowelstep7.wav,None,1000,6,2582690,340,29.285
B,6,2554685,sinestep5.wav,None,1000,6,2584690,340,31.285
B,6,2554685,vowelstep1.wav,None,1000,6,2586690,350,33.285
B,6,2554685,vowelstep7.wav,None,1000,6,2588691,329,35.285
B,6,2554685,vowelstep3.wav,None,1000,6,2590691,329,37.285
B,6,2554685,sinestep5.wav,None,1000,6,2592691,329,39.285
B,6,2554685,vowelstep1.wav,None,1000,6,2594690,329,41.285
B,6,2554685,sinestep3.wav,None,1000,6,2596690,339,43.285
B,6,2554685,vowelstep5.wav,None,1000,6,2598690,339,45.285
B,6,2554685,vowelstep7.wav,None,1000,6,2600690,339,47.285
B,6,2554685,vowelstep3.wav,None,1000,6,2602690,349,49.285
B,6,2554685,sinestep7.wav,None,1000,6,2604691,349,51.285
B,6,2554685,sinestep3.wav,None,1000,6,2606691,358,53.285
B,6,2554685,sinestep1.wav,None,1000,6,2608691,328,55.285
B,6,2554685,sinestep1.wav,None,1000,6,2610691,338,57.285
B,6,2554685,sinestep5.wav,None,1000,6,2612691,338,59.285
B,6,2554685,vowelstep5.wav,None,1000,6,2614691,348,61.285
B,6,2554685,vowelstep3_catch.wav,2,324,6,2616691,348,63.285
B,6,2554685,vowelstep7.wav,None,1000,6,2618690,1023,65.285
B,6,2554685,sinestep1.wav,None,1000,6,2620690,357,67.285
B,6,2554685,vowelstep5.wav,None,1000,6,2622691,328,69.285
B,6,2554685,vowelstep5_catch.wav,2,253,6,2624691,337,71.285
B,6,2554685,vowelstep7.wav,None,1000,6,2626691,1084,73.285
B,6,2554685,sinestep3.wav,None,1000,6,2628691,338,75.285
B,6,2554685,vowelstep7_catch.wav,2,285,6,2630691,347,77.285
B,6,2554685,sinestep5.wav,None,1000,6,2632691,1059,79.285
B,6,2554685,vowelstep5.wav,None,1000,6,2634691,357,81.285
B,6,2554685,silence.wav,None,1000,6,2636691,326,83.285
B,6,2554685,silence.wav,None,1000,6,2638691,336,85.285
B,6,2554685,vowelstep3.wav,None,1000,6,2640692,335,87.285
B,6,2554685,silence.wav,None,1000,6,2642691,346,89.285
B,6,2554685,sinestep1.wav,None,1000,6,2644691,346,91.285
B,6,2554685,sinestep1.wav,None,1000,6,2646691,345,93.285
B,6,2554685,sinestep5.wav,None,1000,6,2648691,346,95.285
B,6,2554685,vowelstep7.wav,None,1000,6,2650691,356,97.285
B,6,2554685,sinestep5.wav,None,1000,6,2652691,336,99.285
B,6,2554685,sinestep5.wav,None,1000,6,2654691,336,101.285
B,6,2554685,silence.wav,None,1000,6,2656691,336,103.285
B,6,2554685,vowelstep1.wav,None,1000,6,2658692,345,105.285
B,6,2554685,silence.wav,None,1000,6,2660692,345,107.285
B,6,2554685,sinestep1.wav,None,1000,6,2662692,343,109.285
B,6,2554685,vowelstep7.wav,None,1000,6,2664692,355,111.285
B,6,2554685,silence.wav,None,1000,6,2666691,334,113.285
B,6,2554685,sinestep1.wav,None,1000,6,2668691,334,115.285
B,6,2554685,vowelstep3.wav,None,1000,6,2670691,335,117.285
B,6,2554685,vowelstep5.wav,None,1000,6,2672691,344,119.285
B,6,2554685,silence.wav,None,1000,6,2674692,345,121.285
B,6,2554685,sinestep3.wav,None,1000,6,2676692,344,123.285
B,6,2554685,sinestep5.wav,None,1000,6,2678692,323,125.285
B,6,2554685,silence.wav,None,1000,6,2680692,334,127.285
B,6,2554685,vowelstep5.wav,None,1000,6,2682692,333,129.285
B,6,2554685,sinestep3.wav,None,1000,6,2684692,334,131.285
B,6,2554685,sinestep5.wav,None,1000,6,2686692,344,133.285
B,6,2554685,sinestep5.wav,None,1000,6,2688692,343,135.285
B,6,2554685,sinestep7.wav,None,1000,6,2690691,344,137.285
B,6,2554685,sinestep7.wav,None,1000,6,2692692,341,139.285
B,6,2554685,vowelstep5.wav,None,1000,6,2694692,333,141.285
B,6,2554685,sinestep1.wav,None,1000,6,2696692,333,143.285
B,6,2554685,vowelstep7.wav,None,1000,6,2698692,332,145.285
B,6,2554685,sinestep7.wav,None,1000,6,2700692,333,147.285
B,6,2554685,vowelstep5.wav,None,1000,6,2702692,343,149.285
B,6,2554685,vowelstep1.wav,None,1000,6,2704692,342,151.285
B,6,2554685,sinestep3.wav,None,1000,6,2706692,323,153.285
B,6,2554685,silence.wav,None,1000,6,2708692,333,155.285
B,6,2554685,silence.wav,None,1000,6,2710693,333,157.285
B,6,2554685,sinestep7_catch.wav,2,148,6,2712693,331,159.285
B,6,2554685,vowelstep5.wav,None,1000,6,2714692,1192,161.285
B,6,2554685,sinestep7.wav,None,1000,6,2716692,342,163.285
B,6,2554685,vowelstep5.wav,2,855,6,2718692,342,165.285
B,6,2554685,vowelstep3.wav,None,1000,6,2720692,493,167.285
B,6,2554685,silence.wav,None,1000,6,2722692,332,169.285
B,6,2554685,sinestep3.wav,None,1000,6,2724692,331,171.285
B,6,2554685,sinestep7_catch.wav,2,166,6,2726692,331,173.285
B,6,2554685,sinestep3.wav,None,1000,6,2728693,1163,175.285
B,6,2554685,sinestep5_catch.wav,2,563,6,2730693,340,177.285
B,6,2554685,vowelstep5.wav,None,1000,6,2732693,777,179.285
B,6,2554685,silence.wav,None,1000,6,2734693,350,181.285
B,6,2554685,sinestep7.wav,None,1000,6,2736693,321,183.285
B,6,2554685,silence.wav,None,1000,6,2738692,329,185.285
B,6,2554685,sinestep3.wav,None,1000,6,2740692,330,187.285
B,6,2554685,silence.wav,None,1000,6,2742692,340,189.285
B,6,2554685,vowelstep7.wav,None,1000,6,2744693,340,191.285
B,6,2554685,vowelstep3.wav,None,1000,6,2746693,339,193.285
B,6,2554685,vowelstep3.wav,None,1000,6,2748693,339,195.285
B,6,2554685,sinestep7.wav,None,1000,6,2750693,319,197.285
B,6,2554685,sinestep7.wav,None,1000,6,2752693,329,199.285
B,6,2554685,sinestep3.wav,None,1000,6,2754693,329,201.285
B,6,2554685,sinestep3_catch.wav,2,167,6,2756693,340,203.285
B,6,2554685,sinestep1.wav,None,1000,6,2758693,1172,205.285
B,6,2554685,sinestep1.wav,None,1000,6,2760693,339,207.285
B,6,2554685,sinestep3.wav,None,1000,6,2762693,340,209.285
B,6,2554685,silence.wav,None,1000,6,2764693,349,211.285
B,6,2554685,silence.wav,None,1000,6,2766693,329,213.285
B,6,2554685,sinestep5_catch.wav,2,165,6,2768693,328,215.285
B,6,2554685,sinestep7.wav,None,1000,6,2770693,1163,217.285
B,6,2554685,sinestep7.wav,None,1000,6,2772693,339,219.285
B,6,2554685,vowelstep3.wav,None,1000,6,2774693,338,221.285
B,6,2554685,sinestep1_catch.wav,2,113,6,2776693,338,223.285
B,6,2554685,vowelstep5.wav,None,1000,6,2778693,1205,225.285
B,6,2554685,sinestep1.wav,None,1000,6,2780694,328,227.285
B,6,2554685,vowelstep1.wav,None,1000,6,2782694,328,229.285
B,6,2554685,vowelstep1.wav,None,1000,6,2784694,327,231.285
B,6,2554685,sinestep5.wav,None,1000,6,2786693,337,233.285
B,6,2554685,silence.wav,None,1000,6,2788693,337,235.285
B,6,2554685,silence.wav,None,1000,6,2790693,337,237.285
B,6,2554685,vowelstep1.wav,None,1000,6,2792693,347,239.285
B,6,2554685,vowelstep1.wav,None,1000,6,2794693,326,241.285
B,6,2554685,silence.wav,None,1000,6,2796693,327,243.285
B,6,2554685,vowelstep1_catch.wav,2,351,6,2798694,326,245.285
B,6,2554685,sinestep7.wav,None,1000,6,2800694,986,247.285
B,6,2554685,sinestep1.wav,None,1000,6,2802694,336,249.285
B,6,2554685,vowelstep1.wav,None,1000,6,2804694,336,251.285
B,6,2554685,vowelstep3.wav,None,1000,6,2806694,346,253.285
B,6,2554685,sinestep3.wav,None,1000,6,2808694,327,255.285
B,6,2554685,silence.wav,None,1000,6,2810693,326,257.285
B,6,2554685,vowelstep3.wav,None,1000,6,2812693,326,259.285
B,6,2554685,silence.wav,None,1000,6,2814694,336,261.285
B,6,2554685,vowelstep3.wav,None,1000,6,2816694,334,263.285
B,6,2554685,sinestep5.wav,None,1000,6,2818694,336,265.285
B,6,2554685,vowelstep3_catch.wav,2,222,6,2820694,345,267.285
B,6,2554685,sinestep3.wav,None,1000,6,2822694,1103,269.285
B,6,2554685,sinestep1.wav,None,1000,6,2824694,325,271.285
B,6,2554685,vowelstep3.wav,None,1000,6,2826694,325,273.285
B,6,2554685,vowelstep1.wav,None,1000,6,2828694,336,275.285
B,6,2554685,vowelstep5_catch.wav,2,138,6,2830694,335,277.285
B,6,2554685,vowelstep1.wav,None,1000,6,2832695,1197,279.285
B,6,2554685,vowelstep5.wav,None,1000,6,2834694,335,281.285
B,6,2554685,sinestep7.wav,None,1000,6,2836694,344,283.285
B,6,2554685,vowelstep7.wav,None,1000,6,2838694,325,285.285
B,6,2554685,vowelstep1_catch.wav,2,861,6,2840694,354,287.285
B,6,2554685,sinestep1.wav,None,1000,6,2842694,462,289.285
B,6,2554685,vowelstep1.wav,None,1000,6,2844694,334,291.285
B,6,2554685,sinestep5.wav,None,1000,6,2846694,334,293.285
B,6,2554685,vowelstep7.wav,None,1000,6,2848694,344,295.285
B,6,2554685,sinestep7.wav,None,1000,6,2850695,344,297.285
B,6,2554685,vowelstep7_catch.wav,2,288,6,2852695,343,299.285
B,6,2554685,sinestep3.wav,None,1000,6,2854695,1054,301.285
B,6,2554685,vowelstep3.wav,None,1000,6,2856695,333,303.285
B,6,2554685,sinestep5.wav,None,1000,6,2858694,332,305.285
B,6,2554685,vowelstep1.wav,None,1000,6,2860694,333,307.285
B,6,2554685,vowelstep7.wav,None,1000,6,2862694,343,309.285
B,6,2554685,vowelstep1.wav,None,1000,6,2864694,343,311.285
B,6,2554685,sinestep7.wav,None,1000,6,2866694,343,313.285
B,6,2554685,sinestep3.wav,2,131,6,2868695,342,315.285
B,6,2554685,silence.wav,None,1000,6,2870695,1191,317.285
B,6,2554685,vowelstep1.wav,None,1000,6,2872695,332,319.285
H,7,2957048,sinestep3.wav,None,1000,6,2957063,0,1.285
H,7,2957048,sinestep7.wav,None,1000,6,2959063,319,3.285
H,7,2957048,sinestep3.wav,None,1000,6,2961063,320,5.285
H,7,2957048,vowelstep3.wav,None,1000,6,2963063,320,7.285
H,7,2957048,vowelstep1.wav,None,1000,6,2965063,330,9.285
H,7,2957048,sinestep7.wav,None,1000,6,2967063,330,11.285
H,7,2957048,vowelstep3.wav,None,1000,6,2969063,330,13.285
H,7,2957048,silence.wav,None,1000,6,2971063,310,15.285
H,7,2957048,vowelstep1.wav,None,1000,6,2973063,311,17.285
H,7,2957048,sinestep5.wav,None,1000,6,2975063,318,19.285
H,7,2957048,sinestep7.wav,None,1000,6,2977063,318,21.285
H,7,2957048,vowelstep7.wav,None,1000,6,2979063,328,23.285
H,7,2957048,vowelstep1_catch.wav,2,525,6,2981063,328,25.285
H,7,2957048,sinestep5.wav,None,1000,6,2983063,803,27.285
H,7,2957048,vowelstep5.wav,None,1000,6,2985063,309,29.285
H,7,2957048,silence.wav,None,1000,6,2987063,319,31.285
H,7,2957048,vowelstep3_catch.wav,2,706,6,2989063,319,33.285
H,7,2957048,sinestep7.wav,None,1000,6,2991064,611,35.285
H,7,2957048,sinestep5.wav,None,1000,6,2993064,328,37.285
H,7,2957048,silence.wav,None,1000,6,2995063,328,39.285
H,7,2957048,vowelstep3.wav,None,1000,6,2997063,328,41.285
H,7,2957048,vowelstep1.wav,None,1000,6,2999063,337,43.285
H,7,2957048,vowelstep1.wav,None,1000,6,3001063,318,45.285
H,7,2957048,vowelstep3.wav,None,1000,6,3003063,318,47.285
H,7,2957048,sinestep3.wav,None,1000,6,3005063,319,49.285
H,7,2957048,vowelstep1.wav,None,1000,6,3007064,327,51.285
H,7,2957048,sinestep7.wav,None,1000,6,3009064,327,53.285
H,7,2957048,vowelstep7.wav,None,1000,6,3011064,328,55.285
H,7,2957048,vowelstep5_catch.wav,2,144,6,3013064,335,57.285
H,7,2957048,vowelstep5.wav,None,1000,6,3015064,1192,59.285
H,7,2957048,vowelstep3.wav,None,1000,6,3017064,336,61.285
H,7,2957048,vowelstep7_catch.wav,2,247,6,3019063,347,63.285
H,7,2957048,sinestep3.wav,None,1000,6,3021063,1078,65.285
H,7,2957048,sinestep1.wav,None,1000,6,3023063,327,67.285
H,7,2957048,sinestep7.wav,None,1000,6,3025064,326,69.285
H,7,2957048,silence.wav,None,1000,6,3027064,336,71.285
H,7,2957048,vowelstep1.wav,None,1000,6,3029064,336,73.285
H,7,2957048,vowelstep7.wav,None,1000,6,3031064,336,75.285
H,7,2957048,sinestep7.wav,None,1000,6,3033064,335,77.285
H,7,2957048,sinestep1.wav,None,1000,6,3035064,316,79.285
H,7,2957048,sinestep7.wav,None,1000,6,3037064,325,81.285
H,7,2957048,sinestep1.wav,None,1000,6,3039064,326,83.285
H,7,2957048,vowelstep5.wav,None,1000,6,3041064,325,85.285
H,7,2957048,sinestep3.wav,None,1000,6,3043065,336,87.285
H,7,2957048,vowelstep5.wav,None,1000,6,3045064,335,89.285
H,7,2957048,silence.wav,None,1000,6,3047064,314,91.285
H,7,2957048,silence.wav,None,1000,6,3049064,316,93.285
H,7,2957048,sinestep5.wav,None,1000,6,3051064,324,95.285
H,7,2957048,sinestep3.wav,None,1000,6,3053064,324,97.285
H,7,2957048,sinestep7.wav,None,1000,6,3055064,334,99.285
H,7,2957048,sinestep7_catch.wav,2,354,6,3057064,334,101.285
H,7,2957048,silence.wav,None,1000,6,3059064,980,103.285
H,7,2957048,sinestep3.wav,None,1000,6,3061065,334,105.285
H,7,2957048,silence.wav,None,1000,6,3063065,324,107.285
H,7,2957048,vowelstep1.wav,None,1000,6,3065065,323,109.285
H,7,2957048,vowelstep7.wav,None,1000,6,3067065,323,111.285
H,7,2957048,sinestep5.wav,None,1000,6,3069064,323,113.285
H,7,2957048,silence.wav,None,1000,6,3071064,334,115.285
H,7,2957048,vowelstep7.wav,None,1000,6,3073064,333,117.285
H,7,2957048,vowelstep3.wav,None,1000,6,3075064,333,119.285
H,7,2957048,sinestep5.wav,None,1000,6,3077065,322,121.285
H,7,2957048,sinestep1.wav,None,1000,6,3079065,322,123.285
H,7,2957048,vowelstep3.wav,None,1000,6,3081065,322,125.285
H,7,2957048,vowelstep3.wav,None,1000,6,3083065,322,127.285
H,7,2957048,vowelstep5.wav,None,1000,6,3085065,333,129.285
H,7,2957048,vowelstep1.wav,None,1000,6,3087065,333,131.285
H,7,2957048,vowelstep7.wav,None,1000,6,3089065,332,133.285
H,7,2957048,vowelstep3.wav,None,1000,6,3091065,313,135.285
H,7,2957048,vowelstep5.wav,None,1000,6,3093064,322,137.285
H,7,2957048,vowelstep5.wav,None,1000,6,3095065,322,139.285
H,7,2957048,sinestep7.wav,None,1000,6,3097065,321,141.285
H,7,2957048,vowelstep1.wav,None,1000,6,3099065,331,143.285
H,7,2957048,sinestep3.wav,None,1000,6,3101065,332,145.285
H,7,2957048,sinestep1.wav,None,1000,6,3103065,331,147.285
H,7,2957048,vowelstep1.wav,None,1000,6,3105065,341,149.285
H,7,2957048,sinestep5_catch.wav,2,280,6,3107065,322,151.285
H,7,2957048,sinestep7.wav,None,1000,6,3109065,1041,153.285
H,7,2957048,sinestep3_catch.wav,2,163,6,3111065,322,155.285
H,7,2957048,sinestep7.wav,None,1000,6,3113066,1159,157.285
H,7,2957048,sinestep5.wav,None,1000,6,3115066,330,159.285
H,7,2957048,silence.wav,None,1000,6,3117065,340,161.285
H,7,2957048,sinestep1_catch.wav,2,437,6,3119065,342,163.285
H,7,2957048,vowelstep7.wav,None,1000,6,3121065,883,165.285
H,7,2957048,vowelstep7.wav,None,1000,6,3123065,320,167.285
H,7,2957048,sinestep7.wav,None,1000,6,3125065,320,169.285
H,7,2957048,sinestep3.wav,None,1000,6,3127065,330,171.285
H,7,2957048,sinestep5.wav,None,1000,6,3129065,331,173.285
H,7,2957048,vowelstep1_catch.wav,2,145,6,3131066,329,175.285
H,7,2957048,vowelstep1.wav,None,1000,6,3133066,1193,177.285
H,7,2957048,sinestep3.wav,None,1000,6,3135066,318,179.285
H,7,2957048,sinestep3.wav,None,1000,6,3137066,320,181.285
H,7,2957048,vowelstep5.wav,None,1000,6,3139066,319,183.285
H,7,2957048,sinestep1.wav,None,1000,6,3141065,319,185.285
H,7,2957048,sinestep1.wav,None,1000,6,3143065,329,187.285
H,7,2957048,vowelstep7.wav,None,1000,6,3145065,329,189.285
H,7,2957048,sinestep1.wav,None,1000,6,3147066,337,191.285
H,7,2957048,sinestep5.wav,None,1000,6,3149066,318,193.285
H,7,2957048,vowelstep3_catch.wav,2,297,6,3151066,319,195.285
H,7,2957048,sinestep1.wav,None,1000,6,3153066,1022,197.285
H,7,2957048,silence.wav,None,1000,6,3155066,328,199.285
H,7,2957048,vowelstep1.wav,None,1000,6,3157066,328,201.285
H,7,2957048,vowelstep5_catch.wav,2,285,6,3159066,328,203.285
H,7,2957048,sinestep5.wav,None,1000,6,3161066,1052,205.285
H,7,2957048,sinestep1.wav,None,1000,6,3163066,318,207.285
H,7,2957048,silence.wav,None,1000,6,3165066,318,209.285
H,7,2957048,sinestep3.wav,None,1000,6,3167066,317,211.285
H,7,2957048,silence.wav,None,1000,6,3169066,327,213.285
H,7,2957048,vowelstep7_catch.wav,2,534,6,3171066,327,215.285
H,7,2957048,vowelstep5.wav,None,1000,6,3173066,793,217.285
H,7,2957048,sinestep7.wav,None,1000,6,3175066,327,219.285
H,7,2957048,silence.wav,None,1000,6,3177066,307,221.285
H,7,2957048,sinestep1.wav,None,1000,6,3179066,317,223.285
H,7,2957048,silence.wav,None,1000,6,3181066,317,225.285
H,7,2957048,silence.wav,None,1000,6,3183067,318,227.285
H,7,2957048,silence.wav,None,1000,6,3185067,327,229.285
H,7,2957048,silence.wav,None,1000,6,3187067,326,231.285
H,7,2957048,sinestep5.wav,2,375,6,3189066,327,233.285
H,7,2957048,silence.wav,None,1000,6,3191066,942,235.285
H,7,2957048,vowelstep3.wav,None,1000,6,3193066,316,237.285
H,7,2957048,silence.wav,None,1000,6,3195066,316,239.285
H,7,2957048,silence.wav,None,1000,6,3197066,326,241.285
H,7,2957048,vowelstep1_catch.wav,2,170,6,3199067,327,243.285
H,7,2957048,vowelstep5.wav,None,1000,6,3201067,1154,245.285
H,7,2957048,vowelstep7.wav,None,1000,6,3203067,325,247.285
H,7,2957048,vowelstep3_catch.wav,2,232,6,3205067,315,249.285
H,7,2957048,vowelstep1.wav,None,1000,6,3207067,1083,251.285
H,7,2957048,sinestep3.wav,None,1000,6,3209067,314,253.285
H,7,2957048,vowelstep5_catch.wav,2,265,6,3211067,314,255.285
H,7,2957048,vowelstep5.wav,None,1000,6,3213066,1059,257.285
H,7,2957048,silence.wav,None,1000,6,3215066,325,259.285
H,7,2957048,vowelstep7.wav,None,1000,6,3217067,323,261.285
H,7,2957048,sinestep5.wav,None,1000,6,3219067,303,263.285
H,7,2957048,vowelstep5.wav,None,1000,6,3221067,314,265.285
H,7,2957048,vowelstep7.wav,None,1000,6,3223067,314,267.285
H,7,2957048,vowelstep3.wav,None,1000,6,3225067,314,269.285
H,7,2957048,vowelstep3.wav,None,1000,6,3227067,324,271.285
H,7,2957048,silence.wav,None,1000,6,3229067,323,273.285
H,7,2957048,vowelstep3.wav,None,1000,6,3231067,323,275.285
H,7,2957048,sinestep1.wav,None,1000,6,3233067,303,277.285
H,7,2957048,silence.wav,None,1000,6,3235068,313,279.285
H,7,2957048,sinestep1.wav,None,1000,6,3237051,312,281.285
H,7,2957048,vowelstep3.wav,None,1000,6,3239051,343,283.285
H,7,2957048,silence.wav,None,1000,6,3241067,342,285.285
H,7,2957048,vowelstep5.wav,None,1000,6,3243067,322,287.285
H,7,2957048,vowelstep5.wav,None,1000,6,3245067,324,289.285
H,7,2957048,vowelstep1.wav,None,1000,6,3247067,332,291.285
H,7,2957048,sinestep5.wav,None,1000,6,3249067,313,293.285
H,7,2957048,vowelstep7.wav,None,1000,6,3251067,333,295.285
H,7,2957048,vowelstep1.wav,None,1000,6,3253051,311,297.285
H,7,2957048,vowelstep7.wav,None,1000,6,3255051,342,299.285
H,7,2957048,vowelstep3.wav,None,1000,6,3257051,340,301.285
H,7,2957048,sinestep1.wav,None,1000,6,3259068,352,303.285
H,7,2957048,sinestep5.wav,None,1000,6,3261067,331,305.285
H,7,2957048,vowelstep5.wav,None,1000,6,3263067,331,307.285
H,7,2957048,sinestep3.wav,None,1000,6,3265067,331,309.285
H,7,2957048,vowelstep7.wav,None,1000,6,3267067,331,311.285
H,7,2957048,sinestep7.wav,None,1000,6,3269051,321,313.285
H,7,2957048,sinestep5.wav,None,1000,6,3271051,340,315.285
H,7,2957048,sinestep3.wav,None,1000,6,3273051,350,317.285
H,7,2957048,sinestep1.wav,None,1000,6,3275051,321,319.285
I,8,3368101,vowelstep7.wav,None,1000,6,3368119,0,1.285
I,8,3368101,sinestep1_catch.wav,2,283,6,3370119,318,3.285
I,8,3368101,sinestep3.wav,None,1000,6,3372119,1031,5.285
I,8,3368101,silence.wav,None,1000,6,3374120,329,7.285
I,8,3368101,vowelstep7.wav,None,1000,6,3376120,327,9.285
I,8,3368101,sinestep3_catch.wav,2,218,6,3378120,338,11.285
I,8,3368101,vowelstep3.wav,None,1000,6,3380120,1117,13.285
I,8,3368101,vowelstep3.wav,None,1000,6,3382119,318,15.285
I,8,3368101,silence.wav,None,1000,6,3384119,317,17.285
I,8,3368101,vowelstep1.wav,None,1000,6,3386119,319,19.285
I,8,3368101,vowelstep5.wav,None,1000,6,3388119,327,21.285
I,8,3368101,vowelstep7.wav,None,1000,6,3390119,327,23.285
I,8,3368101,sinestep1.wav,None,1000,6,3392120,338,25.285
I,8,3368101,vowelstep1.wav,None,1000,6,3394120,307,27.285
I,8,3368101,sinestep5_catch.wav,2,308,6,3396120,316,29.285
I,8,3368101,sinestep5.wav,None,1000,6,3398120,1008,31.285
I,8,3368101,vowelstep1.wav,None,1000,6,3400120,317,33.285
I,8,3368101,sinestep7.wav,None,1000,6,3402120,326,35.285
I,8,3368101,vowelstep3.wav,None,1000,6,3404120,326,37.285
I,8,3368101,vowelstep1.wav,None,1000,6,3406119,326,39.285
I,8,3368101,vowelstep1.wav,None,1000,6,3408119,337,41.285
I,8,3368101,sinestep3.wav,None,1000,6,3410120,317,43.285
I,8,3368101,sinestep5.wav,None,1000,6,3412120,315,45.285
I,8,3368101,sinestep5.wav,None,1000,6,3414120,315,47.285
I,8,3368101,vowelstep3.wav,None,1000,6,3416120,325,49.285
I,8,3368101,silence.wav,None,1000,6,3418120,325,51.285
I,8,3368101,sinestep7_catch.wav,2,306,6,3420120,335,53.285
I,8,3368101,silence.wav,None,1000,6,3422120,999,55.285
I,8,3368101,sinestep1.wav,None,1000,6,3424120,316,57.285
I,8,3368101,vowelstep1.wav,None,1000,6,3426120,316,59.285
I,8,3368101,sinestep1.wav,None,1000,6,3428104,315,61.285
I,8,3368101,sinestep1.wav,None,1000,6,3430120,344,63.285
I,8,3368101,vowelstep7.wav,None,1000,6,3432120,324,65.285
I,8,3368101,sinestep5.wav,None,1000,6,3434120,324,67.285
I,8,3368101,sinestep5_catch.wav,2,329,6,3436120,314,69.285
I,8,3368101,vowelstep7.wav,None,1000,6,3438120,985,71.285
I,8,3368101,vowelstep5.wav,None,1000,6,3440103,315,73.285
I,8,3368101,sinestep3.wav,None,1000,6,3442120,344,75.285
I,8,3368101,vowelstep1.wav,None,1000,6,3444104,324,77.285
I,8,3368101,sinestep3.wav,None,1000,6,3446104,343,79.285
I,8,3368101,sinestep5.wav,None,1000,6,3448121,353,81.285
I,8,3368101,sinestep5.wav,None,1000,6,3450121,333,83.285
I,8,3368101,vowelstep5.wav,None,1000,6,3452121,313,85.285
I,8,3368101,vowelstep7.wav,None,1000,6,3454120,313,87.285
I,8,3368101,sinestep3.wav,None,1000,6,3456104,313,89.285
I,8,3368101,vowelstep3.wav,None,1000,6,3458104,344,91.285
I,8,3368101,sinestep3.wav,None,1000,6,3460120,343,93.285
I,8,3368101,vowelstep5.wav,None,1000,6,3462104,323,95.285
I,8,3368101,sinestep7.wav,None,1000,6,3464104,351,97.285
I,8,3368101,sinestep3_catch.wav,2,364,6,3466121,333,99.285
I,8,3368101,sinestep1_catch.wav,2,494,6,3468121,948,101.285
I,8,3368101,vowelstep3.wav,None,1000,6,3470121,819,103.285
I,8,3368101,vowelstep3.wav,None,1000,6,3472104,322,105.285
I,8,3368101,vowelstep5.wav,None,1000,6,3474104,342,107.285
I,8,3368101,sinestep5.wav,None,1000,6,3476104,352,109.285
I,8,3368101,vowelstep5.wav,None,1000,6,3478120,322,111.285
I,8,3368101,vowelstep5.wav,None,1000,6,3480105,332,113.285
I,8,3368101,vowelstep1.wav,None,1000,6,3482105,331,115.285
I,8,3368101,vowelstep1_catch.wav,2,188,6,3484121,341,117.285
I,8,3368101,sinestep7.wav,None,1000,6,3486121,1122,119.285
I,8,3368101,vowelstep3.wav,None,1000,6,3488104,321,121.285
I,8,3368101,sinestep7.wav,None,1000,6,3490104,341,123.285
I,8,3368101,sinestep7.wav,None,1000,6,3492104,331,125.285
I,8,3368101,vowelstep7.wav,None,1000,6,3494104,331,127.285
I,8,3368101,vowelstep3.wav,None,1000,6,3496121,331,129.285
I,8,3368101,sinestep5.wav,None,1000,6,3498105,330,131.285
I,8,3368101,sinestep5.wav,None,1000,6,3500105,341,133.285
I,8,3368101,vowelstep3.wav,None,1000,6,3502105,341,135.285
I,8,3368101,sinestep5.wav,None,1000,6,3504105,341,137.285
I,8,3368101,sinestep1.wav,None,1000,6,3506105,330,139.285
I,8,3368101,vowelstep7.wav,None,1000,6,3508105,330,141.285
I,8,3368101,silence.wav,None,1000,6,3510104,330,143.285
I,8,3368101,vowelstep7.wav,None,1000,6,3512104,335,145.285
I,8,3368101,silence.wav,None,1000,6,3514105,339,147.285
I,8,3368101,sinestep1.wav,None,1000,6,3516105,339,149.285
I,8,3368101,vowelstep1.wav,None,1000,6,3518105,333,151.285
I,8,3368101,vowelstep3.wav,None,1000,6,3520105,328,153.285
I,8,3368101,silence.wav,None,1000,6,3522105,329,155.285
I,8,3368101,silence.wav,None,1000,6,3524105,328,157.285
I,8,3368101,vowelstep1.wav,None,1000,6,3526105,329,159.285
I,8,3368101,sinestep1.wav,None,1000,6,3528105,338,161.285
I,8,3368101,vowelstep3_catch.wav,2,225,6,3530105,339,163.285
I,8,3368101,sinestep1.wav,None,1000,6,3532106,1112,165.285
I,8,3368101,vowelstep5.wav,None,1000,6,3534105,347,167.285
I,8,3368101,vowelstep5_catch.wav,2,260,6,3536105,328,169.285
I,8,3368101,sinestep1.wav,None,1000,6,3538105,1068,171.285
I,8,3368101,silence.wav,None,1000,6,3540105,327,173.285
I,8,3368101,vowelstep5.wav,None,1000,6,3542105,338,175.285
I,8,3368101,sinestep3.wav,None,1000,6,3544105,337,177.285
I,8,3368101,sinestep3.wav,None,1000,6,3546105,338,179.285
I,8,3368101,silence.wav,None,1000,6,3548105,317,181.285
I,8,3368101,silence.wav,None,1000,6,3550106,327,183.285
I,8,3368101,vowelstep3.wav,None,1000,6,3552106,327,185.285
I,8,3368101,vowelstep7.wav,None,1000,6,3554106,327,187.285
I,8,3368101,vowelstep7.wav,None,1000,6,3556106,337,189.285
I,8,3368101,silence.wav,None,1000,6,3558105,337,191.285
I,8,3368101,sinestep3.wav,None,1000,6,3560105,336,193.285
I,8,3368101,sinestep3.wav,None,1000,6,3562105,337,195.285
I,8,3368101,vowelstep5.wav,None,1000,6,3564105,347,197.285
I,8,3368101,vowelstep1.wav,None,1000,6,3566105,346,199.285
I,8,3368101,vowelstep1.wav,None,1000,6,3568106,326,201.285
I,8,3368101,sinestep5.wav,None,1000,6,3570106,336,203.285
I,8,3368101,silence.wav,None,1000,6,3572106,335,205.285
I,8,3368101,sinestep5.wav,None,1000,6,3574106,337,207.285
I,8,3368101,sinestep7.wav,None,1000,6,3576106,345,209.285
I,8,3368101,sinestep1.wav,None,1000,6,3578106,346,211.285
I,8,3368101,sinestep5.wav,None,1000,6,3580106,345,213.285
I,8,3368101,vowelstep5.wav,None,1000,6,3582105,325,215.285
I,8,3368101,sinestep7.wav,None,1000,6,3584106,335,217.285
I,8,3368101,sinestep5.wav,None,1000,6,3586106,334,219.285
I,8,3368101,sinestep3.wav,None,1000,6,3588106,335,221.285
I,8,3368101,silence.wav,None,1000,6,3590106,344,223.285
I,8,3368101,vowelstep7_catch.wav,2,434,6,3592106,342,225.285
I,8,3368101,sinestep7.wav,None,1000,6,3594106,910,227.285
I,8,3368101,sinestep7.wav,None,1000,6,3596106,354,229.285
I,8,3368101,sinestep3.wav,None,1000,6,3598106,326,231.285
I,8,3368101,vowelstep3.wav,None,1000,6,3600106,335,233.285
I,8,3368101,silence.wav,None,1000,6,3602107,335,235.285
I,8,3368101,sinestep3.wav,None,1000,6,3604107,344,237.285
I,8,3368101,sinestep5.wav,None,1000,6,3606106,345,239.285
I,8,3368101,silence.wav,None,1000,6,3608106,343,241.285
I,8,3368101,vowelstep3.wav,None,1000,6,3610106,344,243.285
I,8,3368101,sinestep1.wav,None,1000,6,3612106,334,245.285
I,8,3368101,sinestep1.wav,None,1000,6,3614106,334,247.285
I,8,3368101,sinestep7.wav,None,1000,6,3616106,333,249.285
I,8,3368101,vowelstep7.wav,None,1000,6,3618106,343,251.285
I,8,3368101,vowelstep5.wav,None,1000,6,3620107,344,253.285
I,8,3368101,silence.wav,None,1000,6,3622107,342,255.285
I,8,3368101,sinestep3.wav,None,1000,6,3624107,343,257.285
I,8,3368101,vowelstep1.wav,None,1000,6,3626107,333,259.285
I,8,3368101,vowelstep1.wav,None,1000,6,3628107,333,261.285
I,8,3368101,silence.wav,None,1000,6,3630106,333,263.285
I,8,3368101,vowelstep3.wav,None,1000,6,3632106,330,265.285
I,8,3368101,silence.wav,None,1000,6,3634106,342,267.285
I,8,3368101,silence.wav,None,1000,6,3636106,342,269.285
I,8,3368101,sinestep7.wav,None,1000,6,3638107,341,271.285
I,8,3368101,sinestep7.wav,None,1000,6,3640107,321,273.285
I,8,3368101,vowelstep5.wav,None,1000,6,3642107,331,275.285
I,8,3368101,silence.wav,None,1000,6,3644107,331,277.285
I,8,3368101,silence.wav,None,1000,6,3646107,329,279.285
I,8,3368101,sinestep1.wav,None,1000,6,3648107,342,281.285
I,8,3368101,silence.wav,None,1000,6,3650107,342,283.285
I,8,3368101,vowelstep7.wav,None,1000,6,3652107,341,285.285
I,8,3368101,vowelstep5_catch.wav,None,1000,6,3654107,351,287.285
I,8,3368101,sinestep7.wav,None,1000,6,3656107,329,289.285
I,8,3368101,sinestep1.wav,None,1000,6,3658107,331,291.285
I,8,3368101,vowelstep3_catch.wav,2,351,6,3660107,331,293.285
I,8,3368101,sinestep1.wav,None,1000,6,3662107,989,295.285
I,8,3368101,vowelstep7.wav,None,1000,6,3664107,341,297.285
I,8,3368101,sinestep3.wav,None,1000,6,3666107,350,299.285
I,8,3368101,vowelstep5.wav,None,1000,6,3668107,319,301.285
I,8,3368101,vowelstep1_catch.wav,2,429,6,3670107,330,303.285
I,8,3368101,vowelstep7.wav,None,1000,6,3672108,884,305.285
I,8,3368101,vowelstep5.wav,None,1000,6,3674108,339,307.285
I,8,3368101,sinestep1_catch.wav,2,174,6,3676108,339,309.285
I,8,3368101,silence.wav,None,1000,6,3678107,1164,311.285
I,8,3368101,sinestep7.wav,None,1000,6,3680107,339,313.285
I,8,3368101,silence.wav,None,1000,6,3682107,349,315.285
I,8,3368101,vowelstep1.wav,None,1000,6,3684107,329,317.285
I,8,3368101,sinestep7.wav,None,1000,6,3686107,329,319.285
G,9,3756806,vowelstep3.wav,None,1000,6,3756825,0,1.285
G,9,3756806,vowelstep3.wav,None,1000,6,3758826,339,3.285
G,9,3756806,vowelstep7.wav,None,1000,6,3760826,306,5.285
G,9,3756806,vowelstep3.wav,None,1000,6,3762826,319,7.285
G,9,3756806,sinestep5.wav,None,1000,6,3764809,320,9.285
G,9,3756806,sinestep1_catch.wav,2,272,6,3766809,329,11.285
G,9,3756806,silence.wav,None,1000,6,3768825,1056,13.285
G,9,3756806,silence.wav,None,1000,6,3770825,329,15.285
G,9,3756806,vowelstep7.wav,None,1000,6,3772825,329,17.285
G,9,3756806,vowelstep1.wav,None,1000,6,3774825,339,19.285
G,9,3756806,silence.wav,None,1000,6,3776826,320,21.285
G,9,3756806,sinestep1.wav,None,1000,6,3778826,318,23.285
G,9,3756806,vowelstep7.wav,None,1000,6,3780809,318,25.285
G,9,3756806,sinestep5.wav,None,1000,6,3782809,328,27.285
G,9,3756806,sinestep5.wav,None,1000,6,3784809,330,29.285
G,9,3756806,sinestep3.wav,None,1000,6,3786826,328,31.285
G,9,3756806,vowelstep3.wav,None,1000,6,3788826,338,33.285
G,9,3756806,silence.wav,None,1000,6,3790825,318,35.285
G,9,3756806,vowelstep1.wav,None,1000,6,3792825,318,37.285
G,9,3756806,sinestep7.wav,None,1000,6,3794826,318,39.285
G,9,3756806,vowelstep5.wav,None,1000,6,3796810,327,41.285
G,9,3756806,vowelstep3.wav,None,1000,6,3798809,327,43.285
G,9,3756806,sinestep1.wav,None,1000,6,3800809,358,45.285
G,9,3756806,sinestep7.wav,None,1000,6,3802809,337,47.285
G,9,3756806,sinestep1.wav,None,1000,6,3804809,338,49.285
G,9,3756806,sinestep5.wav,None,1000,6,3806826,338,51.285
G,9,3756806,vowelstep1.wav,None,1000,6,3808826,327,53.285
G,9,3756806,silence.wav,None,1000,6,3810826,328,55.285
G,9,3756806,sinestep5.wav,None,1000,6,3812810,326,57.285
G,9,3756806,vowelstep1.wav,None,1000,6,3814810,356,59.285
G,9,3756806,vowelstep3.wav,None,1000,6,3816810,326,61.285
G,9,3756806,sinestep3.wav,None,1000,6,3818810,336,63.285
G,9,3756806,sinestep1.wav,None,1000,6,3820810,336,65.285
G,9,3756806,vowelstep5.wav,None,1000,6,3822809,347,67.285
G,9,3756806,vowelstep3.wav,None,1000,6,3824826,346,69.285
G,9,3756806,vowelstep5.wav,None,1000,6,3826826,326,71.285
G,9,3756806,vowelstep7.wav,None,1000,6,3828810,325,73.285
G,9,3756806,vowelstep5.wav,None,1000,6,3830810,335,75.285
G,9,3756806,vowelstep5.wav,None,1000,6,3832810,335,77.285
G,9,3756806,sinestep3.wav,None,1000,6,3834810,335,79.285
G,9,3756806,sinestep3_catch.wav,2,426,6,3836810,345,81.285
G,9,3756806,sinestep5_catch.wav,2,233,6,3838810,918,83.285
G,9,3756806,sinestep7.wav,None,1000,6,3840810,1111,85.285
G,9,3756806,sinestep7_catch.wav,2,156,6,3842826,355,87.285
G,9,3756806,sinestep7.wav,None,1000,6,3844810,1149,89.285
G,9,3756806,vowelstep1.wav,None,1000,6,3846810,335,91.285
G,9,3756806,vowelstep7.wav,None,1000,6,3848810,334,93.285
G,9,3756806,vowelstep3.wav,None,1000,6,3850810,343,95.285
G,9,3756806,sinestep3.wav,None,1000,6,3852810,344,97.285
G,9,3756806,sinestep1.wav,None,1000,6,3854810,344,99.285
G,9,3756806,sinestep1.wav,None,1000,6,3856810,354,101.285
G,9,3756806,sinestep5.wav,None,1000,6,3858810,333,103.285
G,9,3756806,vowelstep7.wav,None,1000,6,3860810,334,105.285
G,9,3756806,silence.wav,None,1000,6,3862810,334,107.285
G,9,3756806,sinestep3.wav,None,1000,6,3864811,344,109.285
G,9,3756806,vowelstep1.wav,None,1000,6,3866811,343,111.285
G,9,3756806,sinestep3.wav,None,1000,6,3868811,342,113.285
G,9,3756806,sinestep3.wav,None,1000,6,3870810,342,115.285
G,9,3756806,sinestep7.wav,None,1000,6,3872810,333,117.285
G,9,3756806,silence.wav,None,1000,6,3874810,333,119.285
G,9,3756806,vowelstep5.wav,None,1000,6,3876810,333,121.285
G,9,3756806,sinestep1_catch.wav,2,339,6,3878810,332,123.285
G,9,3756806,silence.wav,None,1000,6,3880810,1003,125.285
G,9,3756806,sinestep5.wav,None,1000,6,3882811,342,127.285
G,9,3756806,sinestep7.wav,None,1000,6,3884811,342,129.285
G,9,3756806,sinestep3.wav,None,1000,6,3886811,322,131.285
G,9,3756806,sinestep3.wav,None,1000,6,3888811,332,133.285
G,9,3756806,vowelstep5.wav,None,1000,6,3890811,332,135.285
G,9,3756806,sinestep3.wav,None,1000,6,3892811,342,137.285
G,9,3756806,sinestep3_catch.wav,2,301,6,3894810,341,139.285
G,9,3756806,vowelstep1.wav,None,1000,6,3896810,1039,141.285
G,9,3756806,vowelstep1.wav,None,1000,6,3898811,340,143.285
G,9,3756806,sinestep5.wav,None,1000,6,3900811,331,145.285
G,9,3756806,silence.wav,None,1000,6,3902811,331,147.285
G,9,3756806,sinestep3.wav,None,1000,6,3904811,331,149.285
G,9,3756806,silence.wav,None,1000,6,3906811,330,151.285
G,9,3756806,vowelstep3.wav,None,1000,6,3908811,341,153.285
G,9,3756806,sinestep5.wav,None,1000,6,3910811,340,155.285
G,9,3756806,vowelstep7.wav,None,1000,6,3912811,350,157.285
G,9,3756806,silence.wav,None,1000,6,3914811,320,159.285
G,9,3756806,sinestep5_catch.wav,2,433,6,3916812,330,161.285
G,9,3756806,vowelstep5.wav,None,1000,6,3918811,897,163.285
G,9,3756806,silence.wav,None,1000,6,3920811,329,165.285
G,9,3756806,vowelstep7.wav,None,1000,6,3922811,340,167.285
G,9,3756806,vowelstep1.wav,None,1000,6,3924811,339,169.285
G,9,3756806,vowelstep1.wav,None,1000,6,3926811,339,171.285
G,9,3756806,vowelstep1.wav,None,1000,6,3928811,319,173.285
G,9,3756806,sinestep5.wav,None,1000,6,3930811,329,175.285
G,9,3756806,vowelstep3.wav,None,1000,6,3932811,329,177.285
G,9,3756806,sinestep1.wav,None,1000,6,3934812,329,179.285
G,9,3756806,vowelstep1.wav,None,1000,6,3936812,338,181.285
G,9,3756806,sinestep1.wav,None,1000,6,3938812,338,183.285
G,9,3756806,sinestep7.wav,None,1000,6,3940812,338,185.285
G,9,3756806,sinestep7.wav,None,1000,6,3942811,345,187.285
G,9,3756806,sinestep3.wav,None,1000,6,3944811,328,189.285
G,9,3756806,sinestep5.wav,None,1000,6,3946811,328,191.285
G,9,3756806,silence.wav,None,1000,6,3948811,329,193.285
G,9,3756806,sinestep7_catch.wav,2,267,6,3950811,329,195.285
G,9,3756806,vowelstep7_catch.wav,2,318,6,3952812,1070,197.285
G,9,3756806,sinestep7.wav,None,1000,6,3954812,1019,199.285
G,9,3756806,silence.wav,None,1000,6,3956812,317,201.285
G,9,3756806,sinestep7.wav,None,1000,6,3958812,318,203.285
G,9,3756806,sinestep3.wav,None,1000,6,3960812,327,205.285
G,9,3756806,vowelstep7.wav,None,1000,6,3962812,327,207.285
G,9,3756806,sinestep1.wav,None,1000,6,3964812,338,209.285
G,9,3756806,silence.wav,None,1000,6,3966811,337,211.285
G,9,3756806,silence.wav,None,1000,6,3968812,337,213.285
G,9,3756806,vowelstep7.wav,None,1000,6,3970812,336,215.285
G,9,3756806,vowelstep5.wav,None,1000,6,3972812,326,217.285
G,9,3756806,sinestep7.wav,None,1000,6,3974812,327,219.285
G,9,3756806,vowelstep5.wav,None,1000,6,3976812,326,221.285
G,9,3756806,vowelstep5_catch.wav,2,340,6,3978812,326,223.285
G,9,3756806,vowelstep7.wav,None,1000,6,3980812,996,225.285
G,9,3756806,silence.wav,None,1000,6,3982812,337,227.285
G,9,3756806,silence.wav,None,1000,6,3984812,346,229.285
G,9,3756806,sinestep1.wav,None,1000,6,3986813,317,231.285
G,9,3756806,silence.wav,None,1000,6,3988813,325,233.285
G,9,3756806,vowelstep7.wav,None,1000,6,3990812,325,235.285
G,9,3756806,vowelstep5.wav,None,1000,6,3992812,335,237.285
G,9,3756806,vowelstep3.wav,None,1000,6,3994812,334,239.285
G,9,3756806,vowelstep3_catch.wav,2,301,6,3996812,334,241.285
G,9,3756806,sinestep1.wav,None,1000,6,3998812,1033,243.285
G,9,3756806,silence.wav,None,1000,6,4000812,326,245.285
G,9,3756806,sinestep7.wav,None,1000,6,4002812,325,247.285
G,9,3756806,sinestep1.wav,None,1000,6,4004813,326,249.285
G,9,3756806,sinestep3.wav,None,1000,6,4006813,324,251.285
G,9,3756806,vowelstep3.wav,None,1000,6,4008813,334,253.285
G,9,3756806,vowelstep1_catch.wav,2,264,6,4010813,334,255.285
G,9,3756806,sinestep7.wav,None,1000,6,4012813,1070,257.285
G,9,3756806,silence.wav,None,1000,6,4014812,324,259.285
G,9,3756806,sinestep5.wav,None,1000,6,4016812,324,261.285
G,9,3756806,sinestep5.wav,None,1000,6,4018812,324,263.285
G,9,3756806,vowelstep5.wav,None,1000,6,4020813,324,265.285
G,9,3756806,sinestep5.wav,None,1000,6,4022813,333,267.285
G,9,3756806,sinestep7.wav,None,1000,6,4024813,333,269.285
G,9,3756806,silence.wav,None,1000,6,4026813,333,271.285
G,9,3756806,vowelstep7_catch.wav,2,430,6,4028813,313,273.285
G,9,3756806,vowelstep5.wav,None,1000,6,4030813,893,275.285
G,9,3756806,silence.wav,None,1000,6,4032813,323,277.285
G,9,3756806,sinestep3.wav,None,1000,6,4034813,323,279.285
G,9,3756806,vowelstep5.wav,None,1000,6,4036813,333,281.285
G,9,3756806,silence.wav,None,1000,6,4038813,332,283.285
G,9,3756806,vowelstep1.wav,None,1000,6,4040813,332,285.285
G,9,3756806,sinestep1.wav,None,1000,6,4042813,342,287.285
G,9,3756806,vowelstep3.wav,None,1000,6,4044813,342,289.285
G,9,3756806,vowelstep7.wav,None,1000,6,4046813,340,291.285
G,9,3756806,vowelstep7.wav,None,1000,6,4048813,322,293.285
G,9,3756806,sinestep1.wav,None,1000,6,4050813,332,295.285
G,9,3756806,vowelstep5.wav,None,1000,6,4052813,332,297.285
G,9,3756806,silence.wav,None,1000,6,4054813,340,299.285
G,9,3756806,sinestep1.wav,None,1000,6,4056814,342,301.285
G,9,3756806,vowelstep7.wav,None,1000,6,4058814,321,303.285
G,9,3756806,vowelstep5_catch.wav,2,505,6,4060814,320,305.285
G,9,3756806,vowelstep3.wav,None,1000,6,4062813,835,307.285
G,9,3756806,vowelstep3_catch.wav,2,166,6,4064813,330,309.285
G,9,3756806,sinestep7.wav,None,1000,6,4066813,1164,311.285
G,9,3756806,sinestep5.wav,None,1000,6,4068813,332,313.285
G,9,3756806,vowelstep1.wav,None,1000,6,4070813,341,315.285
G,9,3756806,vowelstep3.wav,None,1000,6,4072813,341,317.285
G,9,3756806,vowelstep1.wav,None,1000,6,4074814,340,319.285