block,count_main_sequence,first_trial_timestamp,fname,response_catch_response,response_time_catch_response,subject_nr,time_stimulus,time_to_pad,timing
P,NA,250891,vowelstep1_catch.wav,2,926,15,250905,0,
P,NA,250891,sinestep7_catch.wav,None,1000,15,252905,511,
P,NA,250891,vowelstep5_catch.wav,None,1000,15,254904,419,
P,NA,250891,sinestep7.wav,None,1000,15,256904,450,
P,NA,250891,sinestep7.wav,None,1000,15,258905,430,
P,NA,250891,sinestep3.wav,None,1000,15,260905,459,
P,NA,250891,sinestep1.wav,None,1000,15,262905,439,
P,NA,250891,vowelstep7.wav,None,1000,15,264905,440,
P,NA,250891,vowelstep3.wav,None,1000,15,266905,439,
P,NA,250891,silence.wav,None,1000,15,268905,450,
P,NA,250891,sinestep1.wav,None,1000,15,270905,449,
P,NA,250891,vowelstep1.wav,None,1000,15,272905,450,
P,NA,250891,sinestep5.wav,None,1000,15,274905,430,
P,NA,250891,sinestep1.wav,None,1000,15,276906,438,
P,NA,250891,sinestep1.wav,None,1000,15,278905,438,
P,NA,250891,vowelstep1.wav,None,1000,15,280905,438,
P,NA,250891,silence.wav,None,1000,15,282905,448,
P,NA,250891,silence.wav,None,1000,15,284905,448,
P,NA,250891,silence.wav,None,1000,15,286905,449,
P,NA,250891,sinestep3_catch.wav,2,374,15,288905,458,
P,NA,250891,vowelstep7.wav,None,1000,15,290905,1063,
P,NA,250891,silence.wav,None,1000,15,292906,437,
P,NA,250891,vowelstep7.wav,None,1000,15,294906,437,
P,NA,250891,vowelstep3.wav,None,1000,15,296906,447,
P,NA,250891,silence.wav,None,1000,15,298906,447,
P,NA,250891,vowelstep1.wav,None,1000,15,300906,447,
P,NA,250891,sinestep3.wav,None,1000,15,302906,458,
P,NA,250891,vowelstep1.wav,None,1000,15,304905,428,
P,NA,250891,silence.wav,None,1000,15,306905,438,
P,NA,250891,sinestep7.wav,None,1000,15,308905,437,
P,NA,250891,sinestep5_catch.wav,2,320,15,310906,447,
P,NA,250891,silence.wav,None,1000,15,312906,1125,
P,NA,250891,sinestep7.wav,None,1000,15,314906,446,
P,NA,250891,sinestep5.wav,None,1000,15,316906,446,
P,NA,250891,sinestep3.wav,None,1000,15,318906,436,
P,NA,250891,sinestep1_catch.wav,2,200,15,320906,435,
P,NA,250891,vowelstep3_catch.wav,2,442,15,322906,1235,
P,NA,250891,vowelstep5_catch.wav,2,270,15,324906,993,
P,NA,250891,vowelstep7.wav,None,1000,15,326906,1175,
P,NA,250891,silence.wav,None,1000,15,328906,446,
P,NA,250891,vowelstep7_catch.wav,2,226,15,330906,445,
P,NA,250891,vowelstep3.wav,None,1000,15,332906,1228,
P,NA,250891,silence.wav,None,1000,15,334906,436,
P,NA,250891,sinestep7_catch.wav,2,197,15,336906,435,
P,NA,250891,sinestep7.wav,None,1000,15,338906,1237,
P,NA,250891,vowelstep5.wav,None,1000,15,340906,446,
P,NA,250891,vowelstep3.wav,None,1000,15,342906,446,
P,NA,250891,sinestep5.wav,None,1000,15,344907,445,
P,NA,250891,sinestep5_catch.wav,2,179,15,346907,424,
P,NA,250891,sinestep3.wav,None,1000,15,348907,1254,
P,NA,250891,silence.wav,None,1000,15,350907,434,
P,NA,250891,vowelstep7.wav,None,1000,15,352906,434,
P,NA,250891,sinestep3_catch.wav,2,191,15,354906,444,
P,NA,250891,vowelstep5.wav,None,1000,15,356906,1252,
P,NA,250891,silence.wav,None,1000,15,358906,444,
P,NA,250891,sinestep1.wav,None,1000,15,360906,453,
P,NA,250891,vowelstep1.wav,None,1000,15,362907,434,
P,NA,250891,silence.wav,None,1000,15,364907,432,
P,NA,250891,silence.wav,None,1000,15,366907,433,
P,NA,250891,silence.wav,None,1000,15,368907,443,
P,NA,250891,sinestep1_catch.wav,2,113,15,370907,443,
P,NA,250891,sinestep1.wav,None,1000,15,372907,1330,
P,NA,250891,silence.wav,None,1000,15,374907,423,
P,NA,250891,vowelstep1_catch.wav,2,298,15,376906,433,
P,NA,250891,vowelstep5.wav,None,1000,15,378906,1135,
P,NA,250891,sinestep5.wav,None,1000,15,380907,432,
P,NA,250891,vowelstep3.wav,None,1000,15,382907,441,
P,NA,250891,silence.wav,None,1000,15,384907,442,
P,NA,250891,silence.wav,None,1000,15,386907,441,
P,NA,250891,sinestep7.wav,None,1000,15,388907,451,
P,NA,250891,vowelstep5.wav,None,1000,15,390907,431,
P,NA,250891,silence.wav,None,1000,15,392907,431,
P,NA,250891,vowelstep3_catch.wav,2,237,15,394907,431,
P,NA,250891,silence.wav,None,1000,15,396907,1203,
P,NA,250891,vowelstep5.wav,None,1000,15,398908,442,
P,NA,250891,vowelstep5_catch.wav,2,327,15,400907,441,
P,NA,250891,vowelstep7_catch.wav,2,307,15,402907,1123,
P,NA,250891,sinestep3.wav,None,1000,15,404907,1143,
P,NA,250891,vowelstep5.wav,None,1000,15,406907,431,
P,NA,250891,vowelstep3.wav,None,1000,15,408907,431,
P,NA,250891,silence.wav,None,1000,15,410907,440,
P,NA,250891,sinestep3.wav,None,1000,15,412907,441,
P,NA,250891,silence.wav,None,1000,15,414908,441,
P,NA,250891,sinestep7_catch.wav,2,197,15,416908,449,
P,NA,250891,sinestep5_catch.wav,2,329,15,418908,1221,
P,NA,250891,sinestep5.wav,None,1000,15,420908,1100,
P,NA,250891,sinestep5.wav,None,1000,15,422908,429,
P,NA,250891,vowelstep7.wav,None,1000,15,424907,439,
P,NA,250891,sinestep3_catch.wav,2,383,15,426907,439,
P,NA,250891,vowelstep1.wav,None,1000,15,428907,1055,
J,0,838343,sinestep5_catch.wav,None,1000,15,838348,0,1.285
J,0,838343,sinestep5.wav,None,1000,15,840348,340,3.285
J,0,838343,sinestep3.wav,None,1000,15,842348,337,5.285
J,0,838343,sinestep1.wav,None,1000,15,844348,325,7.285
J,0,838343,sinestep7.wav,None,1000,15,846347,357,9.285
J,0,838343,vowelstep3.wav,2,53,15,848347,357,11.285
J,0,838343,sinestep1.wav,None,1000,15,850347,1313,13.285
J,0,838343,vowelstep5.wav,None,1000,15,852348,342,15.285
J,0,838343,vowelstep3.wav,None,1000,15,854348,344,17.285
J,0,838343,vowelstep1.wav,None,1000,15,856348,343,19.285
J,0,838343,vowelstep1.wav,None,1000,15,858348,357,21.285
J,0,838343,sinestep3.wav,None,1000,15,860348,356,23.285
J,0,838343,silence.wav,None,1000,15,862348,366,25.285
J,0,838343,vowelstep7.wav,None,1000,15,864348,335,27.285
J,0,838343,sinestep3.wav,None,1000,15,866348,344,29.285
J,0,838343,sinestep7.wav,None,1000,15,868348,344,31.285
J,0,838343,silence.wav,None,1000,15,870348,345,33.285
J,0,838343,vowelstep5.wav,None,1000,15,872348,355,35.285
J,0,838343,sinestep1.wav,None,1000,15,874348,355,37.285
J,0,838343,sinestep1_catch.wav,2,263,15,876348,354,39.285
J,0,838343,sinestep7.wav,None,1000,15,878348,1100,41.285
J,0,838343,vowelstep7.wav,None,1000,15,880348,340,43.285
J,0,838343,sinestep3_catch.wav,2,760,15,882348,341,45.285
J,0,838343,vowelstep3.wav,None,1000,15,884348,583,47.285
J,0,838343,vowelstep7.wav,None,1000,15,886348,353,49.285
J,0,838343,sinestep1.wav,None,1000,15,888349,354,51.285
J,0,838343,vowelstep3.wav,None,1000,15,890349,354,53.285
J,0,838343,vowelstep1.wav,None,1000,15,892349,363,55.285
J,0,838343,sinestep5.wav,None,1000,15,894348,342,57.285
J,0,838343,sinestep5_catch.wav,2,156,15,896348,342,59.285
J,0,838343,sinestep5.wav,None,1000,15,898348,1187,61.285
J,0,838343,vowelstep7.wav,None,1000,15,900348,309,63.285
J,0,838343,sinestep7.wav,None,1000,15,902348,353,65.285
J,0,838343,vowelstep1.wav,None,1000,15,904349,354,67.285
J,0,838343,sinestep7_catch.wav,2,99,15,906349,359,69.285
J,0,838343,silence.wav,None,1000,15,908349,1232,71.285
J,0,838343,vowelstep5.wav,None,1000,15,910349,343,73.285
J,0,838343,sinestep5.wav,None,1000,15,912349,340,75.285
J,0,838343,sinestep5.wav,None,1000,15,914349,352,77.285
J,0,838343,vowelstep3.wav,None,1000,15,916349,353,79.285
J,0,838343,vowelstep5.wav,None,1000,15,918349,352,81.285
J,0,838343,sinestep3.wav,None,1000,15,920348,352,83.285
J,0,838343,silence.wav,None,1000,15,922349,331,85.285
J,0,838343,vowelstep3.wav,None,1000,15,924349,342,87.285
J,0,838343,vowelstep7.wav,None,1000,15,926349,340,89.285
J,0,838343,silence.wav,None,1000,15,928349,350,91.285
J,0,838343,sinestep3.wav,None,1000,15,930349,352,93.285
J,0,838343,silence.wav,None,1000,15,932349,351,95.285
J,0,838343,sinestep1.wav,None,1000,15,934349,350,97.285
J,0,838343,sinestep5_catch.wav,2,268,15,936349,332,99.285
J,0,838343,sinestep7.wav,None,1000,15,938349,1073,101.285
J,0,838343,sinestep5.wav,None,1000,15,940350,340,103.285
J,0,838343,sinestep5.wav,None,1000,15,942350,351,105.285
J,0,838343,sinestep3.wav,None,1000,15,944349,350,107.285
J,0,838343,sinestep3_catch.wav,2,135,15,946349,350,109.285
J,0,838343,sinestep3.wav,None,1000,15,948349,1215,111.285
J,0,838343,silence.wav,None,1000,15,950349,339,113.285
J,0,838343,sinestep1.wav,None,1000,15,952349,339,115.285
J,0,838343,silence.wav,None,1000,15,954349,339,117.285
J,0,838343,vowelstep3.wav,None,1000,15,956349,340,119.285
J,0,838343,vowelstep5.wav,None,1000,15,958350,349,121.285
J,0,838343,vowelstep7.wav,None,1000,15,960350,348,123.285
J,0,838343,silence.wav,None,1000,15,962350,350,125.285
J,0,838343,sinestep1.wav,None,1000,15,964350,329,127.285
J,0,838343,sinestep3.wav,None,1000,15,966350,340,129.285
J,0,838343,sinestep7.wav,None,1000,15,968349,339,131.285
J,0,838343,silence.wav,None,1000,15,970349,339,133.285
J,0,838343,sinestep1.wav,None,1000,15,972349,350,135.285
J,0,838343,vowelstep7.wav,None,1000,15,974350,350,137.285
J,0,838343,sinestep5.wav,None,1000,15,976350,349,139.285
J,0,838343,vowelstep1.wav,None,1000,15,978350,328,141.285
J,0,838343,vowelstep7.wav,None,1000,15,980350,338,143.285
J,0,838343,vowelstep3.wav,None,1000,15,982350,338,145.285
J,0,838343,vowelstep3.wav,None,1000,15,984350,338,147.285
J,0,838343,sinestep7.wav,None,1000,15,986350,348,149.285
J,0,838343,vowelstep5.wav,None,1000,15,988350,348,151.285
J,0,838343,silence.wav,None,1000,15,990350,346,153.285
J,0,838343,sinestep1.wav,None,1000,15,992350,338,155.285
J,0,838343,sinestep3.wav,None,1000,15,994350,338,157.285
J,0,838343,silence.wav,None,1000,15,996350,338,159.285
J,0,838343,sinestep1.wav,None,1000,15,998350,335,161.285
J,0,838343,vowelstep7.wav,None,1000,15,1000350,338,163.285
J,0,838343,vowelstep7.wav,None,1000,15,1002350,348,165.285
J,0,838343,sinestep1_catch.wav,2,110,15,1004350,344,167.285
J,0,838343,vowelstep1_catch.wav,2,290,15,1006350,1216,169.285
J,0,838343,vowelstep1.wav,None,1000,15,1008350,1037,171.285
J,0,838343,vowelstep7.wav,None,1000,15,1010351,336,173.285
J,0,838343,sinestep1.wav,None,1000,15,1012351,336,175.285
J,0,838343,vowelstep5.wav,None,1000,15,1014351,343,177.285
J,0,838343,vowelstep5.wav,None,1000,15,1016351,344,179.285
J,0,838343,sinestep5.wav,None,1000,15,1018350,344,181.285
J,0,838343,sinestep7.wav,None,1000,15,1020350,356,183.285
J,0,838343,sinestep7.wav,None,1000,15,1022350,336,185.285
J,0,838343,sinestep1.wav,None,1000,15,1024350,335,187.285
J,0,838343,vowelstep1.wav,None,1000,15,1026350,336,189.285
J,0,838343,silence.wav,None,1000,15,1028351,335,191.285
J,0,838343,sinestep5.wav,None,1000,15,1030351,343,193.285
J,0,838343,vowelstep5.wav,None,1000,15,1032351,344,195.285
J,0,838343,vowelstep1.wav,None,1000,15,1034351,355,197.285
J,0,838343,vowelstep1.wav,None,1000,15,1036351,321,199.285
J,0,838343,sinestep3.wav,None,1000,15,1038351,336,201.285
J,0,838343,sinestep3.wav,None,1000,15,1040350,334,203.285
J,0,838343,silence.wav,None,1000,15,1042350,342,205.285
J,0,838343,sinestep5.wav,None,1000,15,1044351,343,207.285
J,0,838343,vowelstep1.wav,None,1000,15,1046351,342,209.285
J,0,838343,vowelstep5.wav,None,1000,15,1048351,354,211.285
J,0,838343,vowelstep3.wav,None,1000,15,1050351,324,213.285
J,0,838343,vowelstep3.wav,None,1000,15,1052351,333,215.285
J,0,838343,silence.wav,None,1000,15,1054351,334,217.285
J,0,838343,sinestep1.wav,None,1000,15,1056351,343,219.285
J,0,838343,vowelstep3.wav,None,1000,15,1058351,342,221.285
J,0,838343,sinestep7.wav,None,1000,15,1060351,342,223.285
J,0,838343,vowelstep7.wav,None,1000,15,1062352,342,225.285
J,0,838343,silence.wav,None,1000,15,1064351,353,227.285
J,0,838343,vowelstep5.wav,None,1000,15,1066351,333,229.285
J,0,838343,silence.wav,None,1000,15,1068351,333,231.285
J,0,838343,sinestep3.wav,None,1000,15,1070351,333,233.285
J,0,838343,vowelstep5.wav,None,1000,15,1072351,342,235.285
J,0,838343,vowelstep3.wav,None,1000,15,1074351,343,237.285
J,0,838343,vowelstep5.wav,None,1000,15,1076351,354,239.285
J,0,838343,vowelstep7.wav,None,1000,15,1078351,324,241.285
J,0,838343,vowelstep1.wav,None,1000,15,1080352,353,243.285
J,0,838343,sinestep7.wav,None,1000,15,1082352,352,245.285
J,0,838343,sinestep7.wav,None,1000,15,1084352,362,247.285
J,0,838343,silence.wav,None,1000,15,1086352,341,249.285
J,0,838343,vowelstep1.wav,None,1000,15,1088352,341,251.285
J,0,838343,vowelstep3_catch.wav,2,119,15,1090351,341,253.285
J,0,838343,vowelstep1.wav,None,1000,15,1092351,1233,255.285
J,0,838343,vowelstep5_catch.wav,2,120,15,1094351,350,257.285
J,0,838343,silence.wav,None,1000,15,1096351,1231,259.285
J,0,838343,sinestep5.wav,None,1000,15,1098352,361,261.285
J,0,838343,vowelstep1.wav,None,1000,15,1100352,340,263.285
J,0,838343,sinestep5.wav,None,1000,15,1102352,339,265.285
J,0,838343,vowelstep3.wav,None,1000,15,1104352,349,267.285
J,0,838343,sinestep5.wav,None,1000,15,1106352,352,269.285
J,0,838343,sinestep7.wav,None,1000,15,1108352,352,271.285
J,0,838343,silence.wav,None,1000,15,1110352,351,273.285
J,0,838343,vowelstep7_catch.wav,2,172,15,1112352,362,275.285
J,0,838343,sinestep3.wav,None,1000,15,1114352,1168,277.285
J,0,838343,vowelstep5.wav,None,1000,15,1116352,339,279.285
J,0,838343,silence.wav,None,1000,15,1118352,338,281.285
J,0,838343,silence.wav,None,1000,15,1120352,350,283.285
J,0,838343,silence.wav,None,1000,15,1122352,350,285.285
J,0,838343,vowelstep7.wav,None,1000,15,1124352,350,287.285
J,0,838343,sinestep3.wav,None,1000,15,1126352,360,289.285
J,0,838343,vowelstep5_catch.wav,2,222,15,1128352,340,291.285
J,0,838343,silence.wav,None,1000,15,1130352,1117,293.285
J,0,838343,sinestep7.wav,None,1000,15,1132353,339,295.285
J,0,838343,vowelstep1.wav,None,1000,15,1134353,339,297.285
J,0,838343,silence.wav,None,1000,15,1136353,349,299.285
J,0,838343,sinestep1.wav,None,1000,15,1138352,346,301.285
J,0,838343,sinestep5.wav,None,1000,15,1140352,349,303.285
J,0,838343,vowelstep5.wav,None,1000,15,1142352,329,305.285
J,0,838343,vowelstep3.wav,None,1000,15,1144352,338,307.285
J,0,838343,sinestep7.wav,None,1000,15,1146352,338,309.285
J,0,838343,vowelstep7.wav,None,1000,15,1148352,348,311.285
J,0,838343,vowelstep3_catch.wav,2,87,15,1150353,349,313.285
J,0,838343,vowelstep1_catch.wav,2,295,15,1152353,1260,315.285
J,0,838343,sinestep3.wav,None,1000,15,1154353,1052,317.285
J,0,838343,sinestep1.wav,None,1000,15,1156353,338,319.285
H,1,1218932,sinestep3.wav,None,1000,15,1218936,0,1.285
H,1,1218932,sinestep7.wav,None,1000,15,1220937,349,3.285
H,1,1218932,sinestep3.wav,None,1000,15,1222937,349,5.285
H,1,1218932,vowelstep3.wav,None,1000,15,1224937,350,7.285
H,1,1218932,vowelstep1.wav,None,1000,15,1226937,360,9.285
H,1,1218932,sinestep7.wav,None,1000,15,1228937,339,11.285
H,1,1218932,vowelstep3.wav,None,1000,15,1230937,339,13.285
H,1,1218932,silence.wav,None,1000,15,1232937,338,15.285
H,1,1218932,vowelstep1.wav,None,1000,15,1234937,349,17.285
H,1,1218932,sinestep5.wav,None,1000,15,1236938,348,19.285
H,1,1218932,sinestep7.wav,None,1000,15,1238938,348,21.285
H,1,1218932,vowelstep7.wav,None,1000,15,1240938,358,23.285
H,1,1218932,vowelstep1_catch.wav,2,238,15,1242937,337,25.285
H,1,1218932,sinestep5.wav,None,1000,15,1244937,1098,27.285
H,1,1218932,vowelstep5.wav,None,1000,15,1246937,338,29.285
H,1,1218932,silence.wav,None,1000,15,1248937,336,31.285
H,1,1218932,vowelstep3_catch.wav,2,119,15,1250937,348,33.285
H,1,1218932,sinestep7.wav,None,1000,15,1252937,1228,35.285
H,1,1218932,sinestep5.wav,None,1000,15,1254938,347,37.285
H,1,1218932,silence.wav,None,1000,15,1256938,336,39.285
H,1,1218932,vowelstep3.wav,None,1000,15,1258938,336,41.285
H,1,1218932,vowelstep1.wav,None,1000,15,1260938,335,43.285
H,1,1218932,vowelstep1.wav,None,1000,15,1262938,337,45.285
H,1,1218932,vowelstep3.wav,None,1000,15,1264938,345,47.285
H,1,1218932,sinestep3.wav,None,1000,15,1266937,345,49.285
H,1,1218932,vowelstep1.wav,None,1000,15,1268937,355,51.285
H,1,1218932,sinestep7.wav,None,1000,15,1270937,325,53.285
H,1,1218932,vowelstep7.wav,None,1000,15,1272938,335,55.285
H,1,1218932,vowelstep5_catch.wav,2,108,15,1274938,334,57.285
H,1,1218932,vowelstep5.wav,None,1000,15,1276938,1226,59.285
H,1,1218932,vowelstep3.wav,None,1000,15,1278938,345,61.285
H,1,1218932,vowelstep7_catch.wav,2,212,15,1280938,341,63.285
H,1,1218932,sinestep3.wav,None,1000,15,1282938,1130,65.285
H,1,1218932,sinestep1.wav,None,1000,15,1284938,355,67.285
H,1,1218932,sinestep7.wav,None,1000,15,1286938,334,69.285
H,1,1218932,silence.wav,None,1000,15,1288938,334,71.285
H,1,1218932,vowelstep1.wav,None,1000,15,1290938,332,73.285
H,1,1218932,vowelstep7.wav,None,1000,15,1292938,343,75.285
H,1,1218932,sinestep7.wav,None,1000,15,1294938,342,77.285
H,1,1218932,sinestep1.wav,None,1000,15,1296938,353,79.285
H,1,1218932,sinestep7.wav,None,1000,15,1298938,322,81.285
H,1,1218932,sinestep1.wav,None,1000,15,1300938,332,83.285
H,1,1218932,vowelstep5.wav,None,1000,15,1302938,332,85.285
H,1,1218932,sinestep3.wav,None,1000,15,1304938,342,87.285
H,1,1218932,vowelstep5.wav,None,1000,15,1306939,341,89.285
H,1,1218932,silence.wav,None,1000,15,1308939,341,91.285
H,1,1218932,silence.wav,None,1000,15,1310939,341,93.285
H,1,1218932,sinestep5.wav,None,1000,15,1312939,321,95.285
H,1,1218932,sinestep3.wav,None,1000,15,1314939,332,97.285
H,1,1218932,sinestep7.wav,None,1000,15,1316938,331,99.285
H,1,1218932,sinestep7_catch.wav,2,199,15,1318938,331,101.285
H,1,1218932,silence.wav,None,1000,15,1320938,1140,103.285
H,1,1218932,sinestep3.wav,None,1000,15,1322938,341,105.285
H,1,1218932,silence.wav,None,1000,15,1324939,340,107.285
H,1,1218932,vowelstep1.wav,None,1000,15,1326939,349,109.285
H,1,1218932,vowelstep7.wav,None,1000,15,1328939,329,111.285
H,1,1218932,sinestep5.wav,None,1000,15,1330939,326,113.285
H,1,1218932,silence.wav,None,1000,15,1332939,328,115.285
H,1,1218932,vowelstep7.wav,None,1000,15,1334939,339,117.285
H,1,1218932,vowelstep3.wav,None,1000,15,1336939,338,119.285
H,1,1218932,sinestep5.wav,None,1000,15,1338939,338,121.285
H,1,1218932,sinestep1.wav,None,1000,15,1340938,348,123.285
H,1,1218932,vowelstep3.wav,None,1000,15,1342939,328,125.285
H,1,1218932,vowelstep3.wav,None,1000,15,1344939,328,127.285
H,1,1218932,vowelstep5.wav,None,1000,15,1346939,326,129.285
H,1,1218932,vowelstep1.wav,None,1000,15,1348939,337,131.285
H,1,1218932,vowelstep7.wav,None,1000,15,1350939,337,133.285
H,1,1218932,vowelstep3.wav,None,1000,15,1352939,337,135.285
H,1,1218932,vowelstep5.wav,None,1000,15,1354939,337,137.285
H,1,1218932,vowelstep5.wav,None,1000,15,1356939,325,139.285
H,1,1218932,sinestep7.wav,None,1000,15,1358940,325,141.285
H,1,1218932,vowelstep1.wav,None,1000,15,1360940,324,143.285
H,1,1218932,sinestep3.wav,None,1000,15,1362940,324,145.285
H,1,1218932,sinestep1.wav,None,1000,15,1364939,334,147.285
H,1,1218932,vowelstep1.wav,None,1000,15,1366939,333,149.285
H,1,1218932,sinestep5_catch.wav,2,268,15,1368939,343,151.285
H,1,1218932,sinestep7.wav,None,1000,15,1370939,1055,153.285
H,1,1218932,sinestep3_catch.wav,2,206,15,1372939,323,155.285
H,1,1218932,sinestep7.wav,None,1000,15,1374939,1117,157.285
H,1,1218932,sinestep5.wav,None,1000,15,1376940,333,159.285
H,1,1218932,silence.wav,None,1000,15,1378940,332,161.285
H,1,1218932,sinestep1_catch.wav,2,63,15,1380940,332,163.285
H,1,1218932,vowelstep7.wav,None,1000,15,1382940,1268,165.285
H,1,1218932,vowelstep7.wav,None,1000,15,1384940,321,167.285
H,1,1218932,sinestep7.wav,None,1000,15,1386940,321,169.285
H,1,1218932,sinestep3.wav,None,1000,15,1388939,321,171.285
H,1,1218932,sinestep5.wav,None,1000,15,1390939,323,173.285
H,1,1218932,vowelstep1_catch.wav,2,110,15,1392939,332,175.285
H,1,1218932,vowelstep1.wav,None,1000,15,1394940,1219,177.285
H,1,1218932,sinestep3.wav,None,1000,15,1396940,340,179.285
H,1,1218932,sinestep3.wav,None,1000,15,1398940,339,181.285
H,1,1218932,vowelstep5.wav,None,1000,15,1400940,340,183.285
H,1,1218932,sinestep1.wav,None,1000,15,1402940,340,185.285
H,1,1218932,sinestep1.wav,None,1000,15,1404940,320,187.285
H,1,1218932,vowelstep7.wav,None,1000,15,1406940,330,189.285
H,1,1218932,sinestep1.wav,None,1000,15,1408940,329,191.285
H,1,1218932,sinestep5.wav,None,1000,15,1410940,329,193.285
H,1,1218932,vowelstep3_catch.wav,2,112,15,1412940,309,195.285
H,1,1218932,sinestep1.wav,None,1000,15,1414940,1225,197.285
H,1,1218932,silence.wav,None,1000,15,1416940,339,199.285
H,1,1218932,vowelstep1.wav,None,1000,15,1418940,348,201.285
H,1,1218932,vowelstep5_catch.wav,2,176,15,1420940,328,203.285
H,1,1218932,sinestep5.wav,None,1000,15,1422940,1151,205.285
H,1,1218932,sinestep1.wav,None,1000,15,1424940,328,207.285
H,1,1218932,silence.wav,None,1000,15,1426940,339,209.285
H,1,1218932,sinestep3.wav,None,1000,15,1428941,339,211.285
H,1,1218932,silence.wav,None,1000,15,1430941,336,213.285
H,1,1218932,vowelstep7_catch.wav,2,287,15,1432941,317,215.285
H,1,1218932,vowelstep5.wav,None,1000,15,1434941,1040,217.285
H,1,1218932,sinestep7.wav,None,1000,15,1436940,327,219.285
H,1,1218932,silence.wav,None,1000,15,1438940,326,221.285
H,1,1218932,sinestep1.wav,None,1000,15,1440940,335,223.285
H,1,1218932,silence.wav,None,1000,15,1442940,335,225.285
H,1,1218932,silence.wav,None,1000,15,1444940,337,227.285
H,1,1218932,silence.wav,None,1000,15,1446941,337,229.285
H,1,1218932,silence.wav,None,1000,15,1448941,324,231.285
H,1,1218932,sinestep5.wav,None,1000,15,1450941,324,233.285
H,1,1218932,silence.wav,None,1000,15,1452941,325,235.285
H,1,1218932,vowelstep3.wav,None,1000,15,1454941,326,237.285
H,1,1218932,silence.wav,None,1000,15,1456941,336,239.285
H,1,1218932,silence.wav,None,1000,15,1458941,335,241.285
H,1,1218932,vowelstep1_catch.wav,None,1000,15,1460940,346,243.285
H,1,1218932,vowelstep5.wav,None,1000,15,1462940,316,245.285
H,1,1218932,vowelstep7.wav,None,1000,15,1464941,324,247.285
H,1,1218932,vowelstep3_catch.wav,2,473,15,1466941,322,249.285
H,1,1218932,vowelstep1.wav,None,1000,15,1468941,860,251.285
H,1,1218932,sinestep3.wav,None,1000,15,1470941,333,253.285
H,1,1218932,vowelstep5_catch.wav,2,260,15,1472941,334,255.285
H,1,1218932,vowelstep5.wav,None,1000,15,1474941,1083,257.285
H,1,1218932,silence.wav,None,1000,15,1476941,324,259.285
H,1,1218932,vowelstep7.wav,None,1000,15,1478941,324,261.285
H,1,1218932,sinestep5.wav,None,1000,15,1480941,325,263.285
H,1,1218932,vowelstep5.wav,None,1000,15,1482942,324,265.285
H,1,1218932,vowelstep7.wav,None,1000,15,1484942,333,267.285
H,1,1218932,vowelstep3.wav,None,1000,15,1486941,333,269.285
H,1,1218932,vowelstep3.wav,None,1000,15,1488941,344,271.285
H,1,1218932,silence.wav,None,1000,15,1490941,344,273.285
H,1,1218932,vowelstep3.wav,None,1000,15,1492941,325,275.285
H,1,1218932,sinestep1.wav,None,1000,15,1494941,325,277.285
H,1,1218932,silence.wav,None,1000,15,1496941,324,279.285
H,1,1218932,sinestep1.wav,None,1000,15,1498942,334,281.285
H,1,1218932,vowelstep3.wav,None,1000,15,1500942,333,283.285
H,1,1218932,silence.wav,None,1000,15,1502942,343,285.285
H,1,1218932,vowelstep5.wav,None,1000,15,1504942,313,287.285
H,1,1218932,vowelstep5.wav,None,1000,15,1506942,323,289.285
H,1,1218932,vowelstep1.wav,None,1000,15,1508942,323,291.285
H,1,1218932,sinestep5.wav,None,1000,15,1510941,333,293.285
H,1,1218932,vowelstep7.wav,None,1000,15,1512941,333,295.285
H,1,1218932,vowelstep1.wav,None,1000,15,1514941,333,297.285
H,1,1218932,vowelstep7.wav,None,1000,15,1516942,334,299.285
H,1,1218932,vowelstep3.wav,None,1000,15,1518942,322,301.285
H,1,1218932,sinestep1.wav,None,1000,15,1520942,321,303.285
H,1,1218932,sinestep5.wav,None,1000,15,1522942,321,305.285
H,1,1218932,vowelstep5.wav,None,1000,15,1524942,322,307.285
H,1,1218932,sinestep3.wav,None,1000,15,1526942,332,309.285
H,1,1218932,vowelstep7.wav,None,1000,15,1528942,333,311.285
H,1,1218932,sinestep7.wav,None,1000,15,1530942,342,313.285
H,1,1218932,sinestep5.wav,None,1000,15,1532942,311,315.285
H,1,1218932,sinestep3.wav,None,1000,15,1534942,322,317.285
H,1,1218932,sinestep1.wav,None,1000,15,1536942,321,319.285
I,2,1601270,vowelstep7.wav,None,1000,15,1601276,0,1.285
I,2,1601270,sinestep1_catch.wav,2,244,15,1603276,326,3.285
I,2,1601270,sinestep3.wav,None,1000,15,1605277,1080,5.285
I,2,1601270,silence.wav,None,1000,15,1607277,324,7.285
I,2,1601270,vowelstep7.wav,None,1000,15,1609277,334,9.285
I,2,1601270,sinestep3_catch.wav,2,131,15,1611277,332,11.285
I,2,1601270,vowelstep3.wav,None,1000,15,1613277,1202,13.285
I,2,1601270,vowelstep3.wav,None,1000,15,1615276,314,15.285
I,2,1601270,silence.wav,None,1000,15,1617276,323,17.285
I,2,1601270,vowelstep1.wav,None,1000,15,1619276,324,19.285
I,2,1601270,vowelstep5.wav,None,1000,15,1621277,322,21.285
I,2,1601270,vowelstep7.wav,None,1000,15,1623277,332,23.285
I,2,1601270,sinestep1.wav,None,1000,15,1625277,332,25.285
I,2,1601270,vowelstep1.wav,None,1000,15,1627277,332,27.285
I,2,1601270,sinestep5_catch.wav,2,345,15,1629277,331,29.285
I,2,1601270,sinestep5.wav,None,1000,15,1631277,977,31.285
I,2,1601270,vowelstep1.wav,None,1000,15,1633277,323,33.285
I,2,1601270,sinestep7.wav,None,1000,15,1635277,323,35.285
I,2,1601270,vowelstep3.wav,None,1000,15,1637277,322,37.285
I,2,1601270,vowelstep1.wav,None,1000,15,1639277,332,39.285
I,2,1601270,vowelstep1.wav,None,1000,15,1641277,331,41.285
I,2,1601270,sinestep3.wav,None,1000,15,1643277,311,43.285
I,2,1601270,sinestep5.wav,None,1000,15,1645277,321,45.285
I,2,1601270,sinestep5.wav,None,1000,15,1647277,321,47.285
I,2,1601270,vowelstep3.wav,None,1000,15,1649277,321,49.285
I,2,1601270,silence.wav,None,1000,15,1651277,331,51.285
I,2,1601270,sinestep7_catch.wav,2,153,15,1653277,330,53.285
I,2,1601270,silence.wav,None,1000,15,1655277,1178,55.285
I,2,1601270,sinestep1.wav,None,1000,15,1657278,331,57.285
I,2,1601270,vowelstep1.wav,None,1000,15,1659278,321,59.285
I,2,1601270,sinestep1.wav,None,1000,15,1661278,321,61.285
I,2,1601270,sinestep1.wav,None,1000,15,1663278,322,63.285
I,2,1601270,vowelstep7.wav,None,1000,15,1665277,320,65.285
I,2,1601270,sinestep5.wav,None,1000,15,1667277,331,67.285
I,2,1601270,sinestep5_catch.wav,2,251,15,1669277,330,69.285
I,2,1601270,vowelstep7.wav,None,1000,15,1671277,1088,71.285
I,2,1601270,vowelstep5.wav,None,1000,15,1673277,310,73.285
I,2,1601270,sinestep3.wav,None,1000,15,1675278,319,75.285
I,2,1601270,vowelstep1.wav,None,1000,15,1677278,319,77.285
I,2,1601270,sinestep3.wav,None,1000,15,1679278,330,79.285
I,2,1601270,sinestep5.wav,None,1000,15,1681278,329,81.285
I,2,1601270,sinestep5.wav,None,1000,15,1683278,330,83.285
I,2,1601270,vowelstep5.wav,None,1000,15,1685278,329,85.285
I,2,1601270,vowelstep7.wav,None,1000,15,1687278,310,87.285
I,2,1601270,sinestep3.wav,None,1000,15,1689277,319,89.285
I,2,1601270,vowelstep3.wav,None,1000,15,1691278,320,91.285
I,2,1601270,sinestep3.wav,None,1000,15,1693278,319,93.285
I,2,1601270,vowelstep5.wav,None,1000,15,1695278,329,95.285
I,2,1601270,sinestep7.wav,None,1000,15,1697278,328,97.285
I,2,1601270,sinestep3_catch.wav,2,380,15,1699278,329,99.285
I,2,1601270,sinestep1_catch.wav,2,356,15,1701278,959,101.285
I,2,1601270,vowelstep3.wav,None,1000,15,1703278,963,103.285
I,2,1601270,vowelstep3.wav,None,1000,15,1705278,319,105.285
I,2,1601270,vowelstep5.wav,None,1000,15,1707278,319,107.285
I,2,1601270,sinestep5.wav,None,1000,15,1709279,329,109.285
I,2,1601270,vowelstep5.wav,None,1000,15,1711279,328,111.285
I,2,1601270,vowelstep5.wav,None,1000,15,1713278,327,113.285
I,2,1601270,vowelstep1.wav,None,1000,15,1715278,336,115.285
I,2,1601270,vowelstep1_catch.wav,2,175,15,1717278,334,117.285
I,2,1601270,sinestep7.wav,None,1000,15,1719278,1162,119.285
I,2,1601270,vowelstep3.wav,None,1000,15,1721278,348,121.285
I,2,1601270,sinestep7.wav,None,1000,15,1723278,328,123.285
I,2,1601270,sinestep7.wav,None,1000,15,1725278,328,125.285
I,2,1601270,vowelstep7.wav,2,297,15,1727279,328,127.285
I,2,1601270,vowelstep3.wav,None,1000,15,1729279,1038,129.285
I,2,1601270,sinestep5.wav,None,1000,15,1731279,317,131.285
I,2,1601270,sinestep5.wav,None,1000,15,1733279,317,133.285
I,2,1601270,vowelstep3.wav,None,1000,15,1735279,313,135.285
I,2,1601270,sinestep5.wav,None,1000,15,1737278,327,137.285
I,2,1601270,sinestep1.wav,None,1000,15,1739278,323,139.285
I,2,1601270,vowelstep7.wav,None,1000,15,1741278,328,141.285
I,2,1601270,silence.wav,None,1000,15,1743278,337,143.285
I,2,1601270,vowelstep7.wav,None,1000,15,1745279,336,145.285
I,2,1601270,silence.wav,None,1000,15,1747279,338,147.285
I,2,1601270,sinestep1.wav,None,1000,15,1749279,347,149.285
I,2,1601270,vowelstep1.wav,None,1000,15,1751279,326,151.285
I,2,1601270,vowelstep3.wav,None,1000,15,1753279,326,153.285
I,2,1601270,silence.wav,None,1000,15,1755279,327,155.285
I,2,1601270,silence.wav,None,1000,15,1757279,336,157.285
I,2,1601270,vowelstep1.wav,None,1000,15,1759279,336,159.285
I,2,1601270,sinestep1.wav,None,1000,15,1761279,336,161.285
I,2,1601270,vowelstep3_catch.wav,2,256,15,1763279,346,163.285
I,2,1601270,sinestep1.wav,None,1000,15,1765279,1088,165.285
I,2,1601270,vowelstep5.wav,None,1000,15,1767279,326,167.285
I,2,1601270,vowelstep5_catch.wav,2,603,15,1769279,326,169.285
I,2,1601270,sinestep1.wav,None,1000,15,1771279,732,171.285
I,2,1601270,silence.wav,None,1000,15,1773279,336,173.285
I,2,1601270,vowelstep5.wav,None,1000,15,1775279,335,175.285
I,2,1601270,sinestep3.wav,None,1000,15,1777279,315,177.285
I,2,1601270,sinestep3.wav,None,1000,15,1779280,315,179.285
I,2,1601270,silence.wav,None,1000,15,1781280,324,181.285
I,2,1601270,silence.wav,None,1000,15,1783280,324,183.285
I,2,1601270,vowelstep3.wav,None,1000,15,1785279,334,185.285
I,2,1601270,vowelstep7.wav,None,1000,15,1787279,334,187.285
I,2,1601270,vowelstep7.wav,None,1000,15,1789279,333,189.285
I,2,1601270,silence.wav,None,1000,15,1791279,334,191.285
I,2,1601270,sinestep3.wav,None,1000,15,1793279,323,193.285
I,2,1601270,sinestep3.wav,None,1000,15,1795279,324,195.285
I,2,1601270,vowelstep5.wav,None,1000,15,1797280,324,197.285
I,2,1601270,vowelstep1.wav,None,1000,15,1799280,332,199.285
I,2,1601270,vowelstep1.wav,None,1000,15,1801280,332,201.285
I,2,1601270,sinestep5.wav,None,1000,15,1803280,333,203.285
I,2,1601270,silence.wav,None,1000,15,1805280,332,205.285
I,2,1601270,sinestep5.wav,None,1000,15,1807280,314,207.285
I,2,1601270,sinestep7.wav,None,1000,15,1809279,322,209.285
I,2,1601270,sinestep1.wav,None,1000,15,1811279,323,211.285
I,2,1601270,sinestep5.wav,None,1000,15,1813279,323,213.285
I,2,1601270,vowelstep5.wav,None,1000,15,1815280,331,215.285
I,2,1601270,sinestep7.wav,None,1000,15,1817280,331,217.285
I,2,1601270,sinestep5.wav,None,1000,15,1819280,329,219.285
I,2,1601270,sinestep3.wav,None,1000,15,1821280,317,221.285
I,2,1601270,silence.wav,None,1000,15,1823280,321,223.285
I,2,1601270,vowelstep7_catch.wav,2,586,15,1825280,322,225.285
I,2,1601270,sinestep7.wav,None,1000,15,1827280,736,227.285
I,2,1601270,sinestep7.wav,None,1000,15,1829280,333,229.285
I,2,1601270,sinestep3.wav,None,1000,15,1831281,333,231.285
I,2,1601270,vowelstep3.wav,None,1000,15,1833280,334,233.285
I,2,1601270,silence.wav,None,1000,15,1835280,322,235.285
I,2,1601270,sinestep3.wav,None,1000,15,1837280,324,237.285
I,2,1601270,sinestep5.wav,None,1000,15,1839280,321,239.285
I,2,1601270,silence.wav,None,1000,15,1841280,323,241.285
I,2,1601270,vowelstep3.wav,None,1000,15,1843280,332,243.285
I,2,1601270,sinestep1.wav,None,1000,15,1845280,333,245.285
I,2,1601270,sinestep1.wav,None,1000,15,1847280,333,247.285
I,2,1601270,sinestep7.wav,None,1000,15,1849281,313,249.285
I,2,1601270,vowelstep7.wav,None,1000,15,1851281,321,251.285
I,2,1601270,vowelstep5.wav,None,1000,15,1853281,321,253.285
I,2,1601270,silence.wav,None,1000,15,1855281,320,255.285
I,2,1601270,sinestep3.wav,None,1000,15,1857281,330,257.285
I,2,1601270,vowelstep1.wav,None,1000,15,1859280,331,259.285
I,2,1601270,vowelstep1.wav,None,1000,15,1861280,329,261.285
I,2,1601270,silence.wav,None,1000,15,1863280,340,263.285
I,2,1601270,vowelstep3.wav,None,1000,15,1865280,320,265.285
I,2,1601270,silence.wav,None,1000,15,1867281,321,267.285
I,2,1601270,silence.wav,None,1000,15,1869281,321,269.285
I,2,1601270,sinestep7.wav,None,1000,15,1871281,329,271.285
I,2,1601270,sinestep7.wav,None,1000,15,1873281,331,273.285
I,2,1601270,vowelstep5.wav,None,1000,15,1875281,331,275.285
I,2,1601270,silence.wav,None,1000,15,1877281,308,277.285
I,2,1601270,silence.wav,None,1000,15,1879281,309,279.285
I,2,1601270,sinestep1.wav,None,1000,15,1881281,315,281.285
I,2,1601270,silence.wav,None,1000,15,1883280,318,283.285
I,2,1601270,vowelstep7.wav,None,1000,15,1885281,328,285.285
I,2,1601270,vowelstep5_catch.wav,2,328,15,1887281,331,287.285
I,2,1601270,sinestep7.wav,None,1000,15,1889281,1002,289.285
I,2,1601270,sinestep1.wav,None,1000,15,1891281,341,291.285
I,2,1601270,vowelstep3_catch.wav,2,373,15,1893281,317,293.285
I,2,1601270,sinestep1.wav,None,1000,15,1895281,947,295.285
I,2,1601270,vowelstep7.wav,None,1000,15,1897281,321,297.285
I,2,1601270,sinestep3.wav,None,1000,15,1899281,335,299.285
I,2,1601270,vowelstep5.wav,None,1000,15,1901282,334,301.285
I,2,1601270,vowelstep1_catch.wav,2,306,15,1903282,334,303.285
I,2,1601270,vowelstep7.wav,None,1000,15,1905282,1037,305.285
I,2,1601270,vowelstep5.wav,None,1000,15,1907281,341,307.285
I,2,1601270,sinestep1_catch.wav,None,1000,15,1909281,323,309.285
I,2,1601270,silence.wav,None,1000,15,1911281,324,311.285
I,2,1601270,sinestep7.wav,None,1000,15,1913281,334,313.285
I,2,1601270,silence.wav,None,1000,15,1915281,335,315.285
I,2,1601270,vowelstep1.wav,None,1000,15,1917281,335,317.285
I,2,1601270,sinestep7.wav,None,1000,15,1919282,345,319.285
A,3,1981517,sinestep5_catch.wav,2,572,15,1981532,0,1.285
A,3,1981517,vowelstep1.wav,None,1000,15,1983532,765,3.285
A,3,1981517,vowelstep3.wav,None,1000,15,1985532,337,5.285
A,3,1981517,sinestep1.wav,None,1000,15,1987532,348,7.285
A,3,1981517,sinestep5_catch.wav,2,194,15,1989533,328,9.285
A,3,1981517,sinestep7.wav,None,1000,15,1991533,1132,11.285
A,3,1981517,sinestep3.wav,None,1000,15,1993533,327,13.285
A,3,1981517,silence.wav,None,1000,15,1995533,336,15.285
A,3,1981517,vowelstep7.wav,None,1000,15,1997533,335,17.285
A,3,1981517,sinestep7.wav,None,1000,15,1999533,332,19.285
A,3,1981517,vowelstep5_catch.wav,2,764,15,2001533,315,21.285
A,3,1981517,sinestep7.wav,None,1000,15,2003532,561,23.285
A,3,1981517,sinestep3.wav,None,1000,15,2005532,325,25.285
A,3,1981517,silence.wav,None,1000,15,2007533,325,27.285
A,3,1981517,sinestep3.wav,None,1000,15,2009533,335,29.285
A,3,1981517,sinestep5_catch.wav,2,372,15,2011533,333,31.285
A,3,1981517,sinestep1.wav,None,1000,15,2013533,962,33.285
A,3,1981517,sinestep1.wav,None,1000,15,2015533,324,35.285
A,3,1981517,sinestep5.wav,None,1000,15,2017533,323,37.285
A,3,1981517,vowelstep3.wav,None,1000,15,2019533,324,39.285
A,3,1981517,vowelstep5.wav,None,1000,15,2021533,323,41.285
A,3,1981517,vowelstep3.wav,None,1000,15,2023534,329,43.285
A,3,1981517,vowelstep1.wav,None,1000,15,2025534,333,45.285
A,3,1981517,vowelstep3.wav,None,1000,15,2027533,334,47.285
A,3,1981517,sinestep3.wav,None,1000,15,2029533,316,49.285
A,3,1981517,sinestep7.wav,None,1000,15,2031533,322,51.285
A,3,1981517,sinestep5.wav,None,1000,15,2033533,324,53.285
A,3,1981517,vowelstep7_catch.wav,2,212,15,2035533,325,55.285
A,3,1981517,silence.wav,None,1000,15,2037533,1122,57.285
A,3,1981517,vowelstep3.wav,None,1000,15,2039533,337,59.285
A,3,1981517,vowelstep1.wav,None,1000,15,2041534,336,61.285
A,3,1981517,silence.wav,None,1000,15,2043534,325,63.285
A,3,1981517,sinestep3.wav,None,1000,15,2045534,325,65.285
A,3,1981517,sinestep7.wav,None,1000,15,2047534,326,67.285
A,3,1981517,sinestep5.wav,None,1000,15,2049534,325,69.285
A,3,1981517,sinestep5.wav,None,1000,15,2051534,325,71.285
A,3,1981517,sinestep7.wav,None,1000,15,2053533,335,73.285
A,3,1981517,sinestep1.wav,None,1000,15,2055533,335,75.285
A,3,1981517,sinestep5.wav,None,1000,15,2057533,346,77.285
A,3,1981517,vowelstep1.wav,None,1000,15,2059534,325,79.285
A,3,1981517,sinestep1.wav,None,1000,15,2061534,323,81.285
A,3,1981517,vowelstep5.wav,None,1000,15,2063534,323,83.285
A,3,1981517,sinestep1.wav,None,1000,15,2065534,333,85.285
A,3,1981517,silence.wav,None,1000,15,2067534,332,87.285
A,3,1981517,vowelstep1.wav,None,1000,15,2069534,332,89.285
A,3,1981517,sinestep3.wav,None,1000,15,2071534,343,91.285
A,3,1981517,vowelstep5.wav,None,1000,15,2073534,312,93.285
A,3,1981517,vowelstep5.wav,None,1000,15,2075534,323,95.285
A,3,1981517,vowelstep5.wav,None,1000,15,2077534,322,97.285
A,3,1981517,vowelstep7.wav,None,1000,15,2079534,332,99.285
A,3,1981517,vowelstep3.wav,None,1000,15,2081534,332,101.285
A,3,1981517,sinestep1.wav,None,1000,15,2083534,331,103.285
A,3,1981517,sinestep1.wav,None,1000,15,2085534,332,105.285
A,3,1981517,vowelstep7.wav,None,1000,15,2087534,341,107.285
A,3,1981517,vowelstep1.wav,None,1000,15,2089534,321,109.285
A,3,1981517,vowelstep7.wav,None,1000,15,2091534,321,111.285
A,3,1981517,silence.wav,None,1000,15,2093535,320,113.285
A,3,1981517,sinestep1.wav,None,1000,15,2095535,329,115.285
A,3,1981517,vowelstep1.wav,None,1000,15,2097535,325,117.285
A,3,1981517,silence.wav,None,1000,15,2099535,339,119.285
A,3,1981517,vowelstep1.wav,None,1000,15,2101534,309,121.285
A,3,1981517,vowelstep3.wav,None,1000,15,2103534,318,123.285
A,3,1981517,vowelstep1.wav,None,1000,15,2105534,320,125.285
A,3,1981517,sinestep7.wav,None,1000,15,2107534,331,127.285
A,3,1981517,silence.wav,None,1000,15,2109534,331,129.285
A,3,1981517,vowelstep1.wav,None,1000,15,2111535,332,131.285
A,3,1981517,silence.wav,None,1000,15,2113535,331,133.285
A,3,1981517,sinestep7.wav,None,1000,15,2115535,341,135.285
A,3,1981517,vowelstep5.wav,None,1000,15,2117535,321,137.285
A,3,1981517,sinestep7.wav,None,1000,15,2119535,317,139.285
A,3,1981517,sinestep3.wav,None,1000,15,2121535,322,141.285
A,3,1981517,vowelstep5.wav,None,1000,15,2123535,331,143.285
A,3,1981517,silence.wav,None,1000,15,2125534,332,145.285
A,3,1981517,sinestep3.wav,None,1000,15,2127534,329,147.285
A,3,1981517,sinestep5.wav,None,1000,15,2129535,340,149.285
A,3,1981517,sinestep3.wav,None,1000,15,2131535,320,151.285
A,3,1981517,vowelstep3.wav,None,1000,15,2133535,320,153.285
A,3,1981517,sinestep3.wav,None,1000,15,2135535,321,155.285
A,3,1981517,vowelstep7_catch.wav,2,164,15,2137535,329,157.285
A,3,1981517,vowelstep7.wav,None,1000,15,2139535,1165,159.285
A,3,1981517,vowelstep5.wav,None,1000,15,2141535,328,161.285
A,3,1981517,sinestep5.wav,None,1000,15,2143535,337,163.285
A,3,1981517,silence.wav,None,1000,15,2145535,320,165.285
A,3,1981517,sinestep5.wav,None,1000,15,2147536,319,167.285
A,3,1981517,vowelstep5_catch.wav,2,127,15,2149535,318,169.285
A,3,1981517,silence.wav,None,1000,15,2151535,1203,171.285
A,3,1981517,sinestep7.wav,None,1000,15,2153535,328,173.285
A,3,1981517,sinestep5.wav,None,1000,15,2155535,329,175.285
A,3,1981517,sinestep7.wav,None,1000,15,2157535,341,177.285
A,3,1981517,vowelstep3.wav,None,1000,15,2159535,320,179.285
A,3,1981517,sinestep5.wav,None,1000,15,2161535,320,181.285
A,3,1981517,vowelstep1.wav,None,1000,15,2163536,319,183.285
A,3,1981517,vowelstep5.wav,None,1000,15,2165536,319,185.285
A,3,1981517,sinestep5.wav,None,1000,15,2167536,328,187.285
A,3,1981517,vowelstep1.wav,None,1000,15,2169536,323,189.285
A,3,1981517,silence.wav,None,1000,15,2171536,335,191.285
A,3,1981517,sinestep1.wav,None,1000,15,2173535,305,193.285
A,3,1981517,vowelstep5.wav,None,1000,15,2175535,315,195.285
A,3,1981517,sinestep3.wav,None,1000,15,2177535,315,197.285
A,3,1981517,silence.wav,None,1000,15,2179535,325,199.285
A,3,1981517,vowelstep3.wav,None,1000,15,2181536,325,201.285
A,3,1981517,vowelstep3_catch.wav,2,173,15,2183536,318,203.285
A,3,1981517,vowelstep5.wav,None,1000,15,2185536,1149,205.285
A,3,1981517,vowelstep1_catch.wav,2,125,15,2187536,315,207.285
A,3,1981517,silence.wav,None,1000,15,2189536,1191,209.285
A,3,1981517,sinestep3.wav,None,1000,15,2191536,318,211.285
A,3,1981517,vowelstep5.wav,None,1000,15,2193536,314,213.285
A,3,1981517,silence.wav,None,1000,15,2195536,325,215.285
A,3,1981517,sinestep5.wav,None,1000,15,2197536,326,217.285
A,3,1981517,vowelstep7.wav,None,1000,15,2199520,336,219.285
A,3,1981517,silence.wav,None,1000,15,2201536,336,221.285
A,3,1981517,vowelstep3.wav,None,1000,15,2203536,335,223.285
A,3,1981517,sinestep7.wav,None,1000,15,2205536,336,225.285
A,3,1981517,silence.wav,None,1000,15,2207536,326,227.285
A,3,1981517,vowelstep3.wav,None,1000,15,2209536,322,229.285
A,3,1981517,vowelstep5.wav,None,1000,15,2211536,325,231.285
A,3,1981517,vowelstep7.wav,None,1000,15,2213536,325,233.285
A,3,1981517,vowelstep3.wav,None,1000,15,2215536,336,235.285
A,3,1981517,vowelstep5.wav,None,1000,15,2217520,334,237.285
A,3,1981517,sinestep1_catch.wav,2,327,15,2219520,346,239.285
A,3,1981517,sinestep3.wav,None,1000,15,2221537,1019,241.285
A,3,1981517,sinestep1.wav,None,1000,15,2223536,325,243.285
A,3,1981517,sinestep3_catch.wav,2,387,15,2225536,327,245.285
A,3,1981517,sinestep7.wav,None,1000,15,2227536,939,247.285
A,3,1981517,vowelstep1.wav,None,1000,15,2229536,335,249.285
A,3,1981517,sinestep3.wav,None,1000,15,2231519,331,251.285
A,3,1981517,vowelstep7.wav,None,1000,15,2233520,333,253.285
A,3,1981517,silence.wav,None,1000,15,2235520,343,255.285
A,3,1981517,sinestep1.wav,None,1000,15,2237520,344,257.285
A,3,1981517,silence.wav,None,1000,15,2239537,340,259.285
A,3,1981517,vowelstep5.wav,None,1000,15,2241537,323,261.285
A,3,1981517,sinestep5_catch.wav,2,126,15,2243537,333,263.285
A,3,1981517,vowelstep7.wav,None,1000,15,2245537,1207,265.285
A,3,1981517,sinestep3.wav,None,1000,15,2247520,333,267.285
A,3,1981517,vowelstep1.wav,None,1000,15,2249520,344,269.285
A,3,1981517,vowelstep3.wav,None,1000,15,2251521,344,271.285
A,3,1981517,sinestep7_catch.wav,2,77,15,2253521,353,273.285
A,3,1981517,silence.wav,None,1000,15,2255520,1275,275.285
A,3,1981517,vowelstep7.wav,None,1000,15,2257520,320,277.285
A,3,1981517,sinestep7.wav,None,1000,15,2259537,334,279.285
A,3,1981517,sinestep1.wav,None,1000,15,2261537,331,281.285
A,3,1981517,vowelstep7.wav,None,1000,15,2263520,315,283.285
A,3,1981517,sinestep5.wav,None,1000,15,2265520,340,285.285
A,3,1981517,sinestep5.wav,None,1000,15,2267520,344,287.285
A,3,1981517,sinestep7_catch.wav,2,272,15,2269521,353,289.285
A,3,1981517,sinestep5.wav,None,1000,15,2271521,1061,291.285
A,3,1981517,silence.wav,None,1000,15,2273521,329,293.285
A,3,1981517,vowelstep3.wav,None,1000,15,2275521,332,295.285
A,3,1981517,silence.wav,None,1000,15,2277537,341,297.285
A,3,1981517,vowelstep1.wav,None,1000,15,2279520,322,299.285
A,3,1981517,sinestep1.wav,None,1000,15,2281520,344,301.285
A,3,1981517,sinestep7.wav,None,1000,15,2283520,352,303.285
A,3,1981517,vowelstep7.wav,None,1000,15,2285521,354,305.285
A,3,1981517,sinestep1_catch.wav,2,401,15,2287521,353,307.285
A,3,1981517,silence.wav,None,1000,15,2289521,958,309.285
A,3,1981517,silence.wav,None,1000,15,2291521,343,311.285
A,3,1981517,vowelstep7.wav,None,1000,15,2293521,342,313.285
A,3,1981517,sinestep1.wav,None,1000,15,2295521,341,315.285
A,3,1981517,vowelstep7.wav,None,1000,15,2297521,353,317.285
A,3,1981517,vowelstep7.wav,None,1000,15,2299521,350,319.285
C,4,2363563,sinestep1.wav,None,1000,15,2363572,0,1.285
C,4,2363563,vowelstep1.wav,None,1000,15,2365572,334,3.285
C,4,2363563,sinestep1.wav,None,1000,15,2367572,340,5.285
C,4,2363563,sinestep1.wav,None,1000,15,2369572,343,7.285
C,4,2363563,vowelstep1.wav,None,1000,15,2371572,343,9.285
C,4,2363563,sinestep1.wav,None,1000,15,2373573,323,11.285
C,4,2363563,sinestep7.wav,None,1000,15,2375573,332,13.285
C,4,2363563,vowelstep7.wav,None,1000,15,2377572,332,15.285
C,4,2363563,vowelstep3.wav,None,1000,15,2379572,328,17.285
C,4,2363563,vowelstep5.wav,None,1000,15,2381572,342,19.285
C,4,2363563,silence.wav,None,1000,15,2383572,338,21.285
C,4,2363563,sinestep3.wav,None,1000,15,2385572,342,23.285
C,4,2363563,vowelstep5.wav,None,1000,15,2387572,353,25.285
C,4,2363563,sinestep1.wav,None,1000,15,2389572,333,27.285
C,4,2363563,vowelstep1.wav,None,1000,15,2391573,333,29.285
C,4,2363563,vowelstep7.wav,None,1000,15,2393573,330,31.285
C,4,2363563,vowelstep3.wav,None,1000,15,2395573,342,33.285
C,4,2363563,sinestep1.wav,None,1000,15,2397573,338,35.285
C,4,2363563,sinestep5.wav,None,1000,15,2399573,341,37.285
C,4,2363563,silence.wav,None,1000,15,2401572,350,39.285
C,4,2363563,vowelstep7.wav,None,1000,15,2403572,330,41.285
C,4,2363563,vowelstep5.wav,None,1000,15,2405572,332,43.285
C,4,2363563,sinestep5.wav,None,1000,15,2407572,330,45.285
C,4,2363563,silence.wav,None,1000,15,2409573,340,47.285
C,4,2363563,sinestep5.wav,None,1000,15,2411573,341,49.285
C,4,2363563,sinestep1.wav,None,1000,15,2413573,340,51.285
C,4,2363563,silence.wav,None,1000,15,2415573,347,53.285
C,4,2363563,vowelstep1.wav,None,1000,15,2417573,330,55.285
C,4,2363563,vowelstep1.wav,None,1000,15,2419573,330,57.285
C,4,2363563,sinestep1.wav,None,1000,15,2421573,330,59.285
C,4,2363563,silence.wav,None,1000,15,2423573,340,61.285
C,4,2363563,vowelstep5.wav,None,1000,15,2425573,339,63.285
C,4,2363563,vowelstep3.wav,None,1000,15,2427573,339,65.285
C,4,2363563,vowelstep3.wav,None,1000,15,2429573,350,67.285
C,4,2363563,vowelstep7.wav,None,1000,15,2431573,315,69.285
C,4,2363563,silence.wav,None,1000,15,2433573,328,71.285
C,4,2363563,vowelstep3.wav,None,1000,15,2435573,329,73.285
C,4,2363563,silence.wav,None,1000,15,2437573,339,75.285
C,4,2363563,sinestep5.wav,None,1000,15,2439573,340,77.285
C,4,2363563,vowelstep7.wav,None,1000,15,2441573,337,79.285
C,4,2363563,vowelstep1_catch.wav,None,1000,15,2443574,339,81.285
C,4,2363563,vowelstep3.wav,None,1000,15,2445574,318,83.285
C,4,2363563,sinestep7.wav,None,1000,15,2447574,324,85.285
C,4,2363563,vowelstep3.wav,None,1000,15,2449573,328,87.285
C,4,2363563,sinestep1.wav,None,1000,15,2451573,327,89.285
C,4,2363563,sinestep7.wav,None,1000,15,2453573,338,91.285
C,4,2363563,sinestep7.wav,None,1000,15,2455573,337,93.285
C,4,2363563,sinestep3.wav,None,1000,15,2457573,337,95.285
C,4,2363563,vowelstep3_catch.wav,None,1000,15,2459573,348,97.285
C,4,2363563,sinestep5.wav,None,1000,15,2461574,328,99.285
C,4,2363563,sinestep5.wav,None,1000,15,2463574,323,101.285
C,4,2363563,vowelstep3.wav,None,1000,15,2465574,327,103.285
C,4,2363563,vowelstep5.wav,None,1000,15,2467574,336,105.285
C,4,2363563,sinestep1.wav,None,1000,15,2469574,336,107.285
C,4,2363563,sinestep3.wav,None,1000,15,2471574,337,109.285
C,4,2363563,vowelstep5.wav,None,1000,15,2473573,316,111.285
C,4,2363563,vowelstep7.wav,None,1000,15,2475573,327,113.285
C,4,2363563,vowelstep1.wav,None,1000,15,2477573,322,115.285
C,4,2363563,sinestep7.wav,None,1000,15,2479574,325,117.285
C,4,2363563,sinestep3.wav,None,1000,15,2481574,335,119.285
C,4,2363563,vowelstep1.wav,None,1000,15,2483574,335,121.285
C,4,2363563,vowelstep1.wav,None,1000,15,2485574,337,123.285
C,4,2363563,sinestep3.wav,None,1000,15,2487574,344,125.285
C,4,2363563,silence.wav,None,1000,15,2489574,325,127.285
C,4,2363563,silence.wav,None,1000,15,2491574,325,129.285
C,4,2363563,vowelstep5_catch.wav,2,285,15,2493574,326,131.285
C,4,2363563,vowelstep5.wav,None,1000,15,2495575,1047,133.285
C,4,2363563,silence.wav,None,1000,15,2497574,334,135.285
C,4,2363563,sinestep1.wav,None,1000,15,2499574,334,137.285
C,4,2363563,vowelstep7.wav,None,1000,15,2501574,344,139.285
C,4,2363563,sinestep7.wav,None,1000,15,2503574,325,141.285
C,4,2363563,silence.wav,None,1000,15,2505574,323,143.285
C,4,2363563,silence.wav,None,1000,15,2507574,321,145.285
C,4,2363563,sinestep7.wav,None,1000,15,2509574,335,147.285
C,4,2363563,vowelstep1.wav,None,1000,15,2511574,330,149.285
C,4,2363563,vowelstep5.wav,None,1000,15,2513575,334,151.285
C,4,2363563,vowelstep5.wav,None,1000,15,2515575,343,153.285
C,4,2363563,vowelstep7.wav,None,1000,15,2517575,324,155.285
C,4,2363563,sinestep7.wav,None,1000,15,2519575,324,157.285
C,4,2363563,vowelstep1.wav,None,1000,15,2521574,323,159.285
C,4,2363563,vowelstep3.wav,None,1000,15,2523574,330,161.285
C,4,2363563,sinestep5.wav,None,1000,15,2525574,335,163.285
C,4,2363563,sinestep7.wav,None,1000,15,2527574,329,165.285
C,4,2363563,sinestep1.wav,None,1000,15,2529574,343,167.285
C,4,2363563,sinestep7.wav,None,1000,15,2531575,344,169.285
C,4,2363563,sinestep3.wav,None,1000,15,2533575,323,171.285
C,4,2363563,silence.wav,None,1000,15,2535575,323,173.285
C,4,2363563,vowelstep7.wav,None,1000,15,2537575,322,175.285
C,4,2363563,sinestep7.wav,None,1000,15,2539575,330,177.285
C,4,2363563,sinestep5.wav,None,1000,15,2541575,334,179.285
C,4,2363563,vowelstep7.wav,None,1000,15,2543575,338,181.285
C,4,2363563,vowelstep5.wav,None,1000,15,2545575,312,183.285
C,4,2363563,vowelstep3.wav,None,1000,15,2547574,342,185.285
C,4,2363563,vowelstep7_catch.wav,None,1000,15,2549575,342,187.285
C,4,2363563,vowelstep3.wav,None,1000,15,2551575,330,189.285
C,4,2363563,vowelstep5.wav,None,1000,15,2553575,332,191.285
C,4,2363563,vowelstep7.wav,None,1000,15,2555575,331,193.285
C,4,2363563,vowelstep7_catch.wav,None,1000,15,2557575,332,195.285
C,4,2363563,vowelstep5_catch.wav,2,284,15,2559575,338,197.285
C,4,2363563,sinestep5.wav,None,1000,15,2561575,1055,199.285
C,4,2363563,sinestep3.wav,None,1000,15,2563575,351,201.285
C,4,2363563,vowelstep3_catch.wav,2,149,15,2565576,333,203.285
C,4,2363563,vowelstep1_catch.wav,2,66,15,2567576,1180,205.285
C,4,2363563,vowelstep5.wav,2,221,15,2569576,1263,207.285
C,4,2363563,vowelstep1.wav,2,75,15,2571575,1109,209.285
C,4,2363563,sinestep1_catch.wav,2,227,15,2573575,1262,211.285
C,4,2363563,sinestep3_catch.wav,2,19,15,2575575,1111,213.285
C,4,2363563,sinestep1.wav,2,307,15,2577575,1331,215.285
C,4,2363563,vowelstep3.wav,None,1000,15,2579575,1013,217.285
C,4,2363563,sinestep3.wav,None,1000,15,2581575,329,219.285
C,4,2363563,vowelstep5.wav,None,1000,15,2583576,330,221.285
C,4,2363563,sinestep7.wav,None,1000,15,2585576,328,223.285
C,4,2363563,sinestep1.wav,None,1000,15,2587576,335,225.285
C,4,2363563,sinestep5_catch.wav,2,297,15,2589576,339,227.285
C,4,2363563,vowelstep7.wav,None,1000,15,2591576,1046,229.285
C,4,2363563,vowelstep3.wav,None,1000,15,2593576,348,231.285
C,4,2363563,silence.wav,None,1000,15,2595575,327,233.285
C,4,2363563,vowelstep1.wav,None,1000,15,2597575,328,235.285
C,4,2363563,sinestep5.wav,None,1000,15,2599575,329,237.285
C,4,2363563,sinestep1.wav,None,1000,15,2601576,337,239.285
C,4,2363563,vowelstep7.wav,None,1000,15,2603576,338,241.285
C,4,2363563,sinestep3.wav,None,1000,15,2605576,334,243.285
C,4,2363563,sinestep3.wav,None,1000,15,2607576,316,245.285
C,4,2363563,sinestep5.wav,None,1000,15,2609576,327,247.285
C,4,2363563,vowelstep3.wav,None,1000,15,2611576,326,249.285
C,4,2363563,sinestep3.wav,None,1000,15,2613576,327,251.285
C,4,2363563,silence.wav,None,1000,15,2615576,338,253.285
C,4,2363563,sinestep3.wav,None,1000,15,2617576,336,255.285
C,4,2363563,vowelstep1.wav,None,1000,15,2619576,336,257.285
C,4,2363563,silence.wav,None,1000,15,2621576,346,259.285
C,4,2363563,vowelstep1.wav,None,1000,15,2623576,322,261.285
C,4,2363563,silence.wav,None,1000,15,2625576,325,263.285
C,4,2363563,sinestep7.wav,None,1000,15,2627576,326,265.285
C,4,2363563,sinestep3.wav,None,1000,15,2629576,335,267.285
C,4,2363563,vowelstep1.wav,None,1000,15,2631576,336,269.285
C,4,2363563,sinestep7.wav,None,1000,15,2633576,335,271.285
C,4,2363563,sinestep7_catch.wav,2,361,15,2635577,316,273.285
C,4,2363563,vowelstep5.wav,None,1000,15,2637577,963,275.285
C,4,2363563,silence.wav,None,1000,15,2639577,322,277.285
C,4,2363563,silence.wav,None,1000,15,2641577,325,279.285
C,4,2363563,sinestep3.wav,None,1000,15,2643576,334,281.285
C,4,2363563,vowelstep7.wav,None,1000,15,2645576,334,283.285
C,4,2363563,sinestep5.wav,None,1000,15,2647576,335,285.285
C,4,2363563,sinestep5.wav,None,1000,15,2649576,335,287.285
C,4,2363563,vowelstep3.wav,None,1000,15,2651576,321,289.285
C,4,2363563,sinestep3.wav,None,1000,15,2653577,325,291.285
C,4,2363563,silence.wav,None,1000,15,2655577,319,293.285
C,4,2363563,silence.wav,None,1000,15,2657577,333,295.285
C,4,2363563,vowelstep7.wav,None,1000,15,2659577,334,297.285
C,4,2363563,silence.wav,None,1000,15,2661577,333,299.285
C,4,2363563,vowelstep5.wav,None,1000,15,2663577,343,301.285
C,4,2363563,sinestep5.wav,None,1000,15,2665577,323,303.285
C,4,2363563,silence.wav,None,1000,15,2667576,324,305.285
C,4,2363563,silence.wav,None,1000,15,2669576,323,307.285
C,4,2363563,silence.wav,None,1000,15,2671577,330,309.285
C,4,2363563,sinestep7_catch.wav,None,1000,15,2673577,331,311.285
C,4,2363563,sinestep7.wav,None,1000,15,2675577,332,313.285
C,4,2363563,sinestep5_catch.wav,None,1000,15,2677577,332,315.285
C,4,2363563,sinestep5.wav,None,1000,15,2679577,312,317.285
C,4,2363563,sinestep3_catch.wav,None,1000,15,2681577,321,319.285
F,5,2743421,sinestep1.wav,None,1000,15,2743428,0,1.285
F,5,2743421,vowelstep5.wav,2,182,15,2745428,322,3.285
F,5,2743421,vowelstep3.wav,None,1000,15,2747428,1144,5.285
F,5,2743421,sinestep5.wav,None,1000,15,2749428,326,7.285
F,5,2743421,vowelstep7.wav,None,1000,15,2751428,338,9.285
F,5,2743421,silence.wav,None,1000,15,2753428,336,11.285
F,5,2743421,vowelstep5.wav,None,1000,15,2755428,348,13.285
F,5,2743421,sinestep3.wav,None,1000,15,2757428,316,15.285
F,5,2743421,sinestep3.wav,None,1000,15,2759429,326,17.285
F,5,2743421,silence.wav,None,1000,15,2761429,326,19.285
F,5,2743421,vowelstep7.wav,None,1000,15,2763429,332,21.285
F,5,2743421,vowelstep7.wav,None,1000,15,2765428,334,23.285
F,5,2743421,vowelstep1_catch.wav,2,850,15,2767428,335,25.285
F,5,2743421,vowelstep3_catch.wav,2,186,15,2769428,484,27.285
F,5,2743421,vowelstep1.wav,None,1000,15,2771428,1159,29.285
F,5,2743421,sinestep5.wav,None,1000,15,2773428,344,31.285
F,5,2743421,sinestep5.wav,None,1000,15,2775429,346,33.285
F,5,2743421,vowelstep7.wav,None,1000,15,2777429,325,35.285
F,5,2743421,sinestep3.wav,None,1000,15,2779429,332,37.285
F,5,2743421,sinestep7.wav,None,1000,15,2781429,334,39.285
F,5,2743421,vowelstep5_catch.wav,2,394,15,2783429,333,41.285
F,5,2743421,sinestep1.wav,None,1000,15,2785429,949,43.285
F,5,2743421,vowelstep7_catch.wav,2,189,15,2787429,324,45.285
F,5,2743421,vowelstep3.wav,None,1000,15,2789428,1154,47.285
F,5,2743421,sinestep1.wav,None,1000,15,2791428,353,49.285
F,5,2743421,sinestep7.wav,None,1000,15,2793429,335,51.285
F,5,2743421,silence.wav,None,1000,15,2795429,329,53.285
F,5,2743421,sinestep7.wav,None,1000,15,2797429,333,55.285
F,5,2743421,vowelstep1.wav,None,1000,15,2799429,342,57.285
F,5,2743421,vowelstep3.wav,None,1000,15,2801429,342,59.285
F,5,2743421,vowelstep7_catch.wav,None,1000,15,2803429,344,61.285
F,5,2743421,sinestep5.wav,None,1000,15,2805429,352,63.285
F,5,2743421,sinestep3.wav,None,1000,15,2807429,333,65.285
F,5,2743421,vowelstep3.wav,None,1000,15,2809429,333,67.285
F,5,2743421,silence.wav,None,1000,15,2811430,330,69.285
F,5,2743421,vowelstep1.wav,None,1000,15,2813429,342,71.285
F,5,2743421,vowelstep1.wav,None,1000,15,2815429,341,73.285
F,5,2743421,vowelstep5_catch.wav,2,237,15,2817429,342,75.285
F,5,2743421,silence.wav,None,1000,15,2819429,1113,77.285
F,5,2743421,vowelstep3.wav,None,1000,15,2821429,322,79.285
F,5,2743421,vowelstep5.wav,None,1000,15,2823429,332,81.285
F,5,2743421,vowelstep3_catch.wav,None,1000,15,2825429,332,83.285
F,5,2743421,vowelstep3.wav,None,1000,15,2827429,340,85.285
F,5,2743421,sinestep7.wav,None,1000,15,2829430,340,87.285
F,5,2743421,vowelstep1.wav,None,1000,15,2831430,340,89.285
F,5,2743421,sinestep1.wav,None,1000,15,2833430,350,91.285
F,5,2743421,vowelstep1_catch.wav,None,1000,15,2835430,331,93.285
F,5,2743421,vowelstep5.wav,None,1000,15,2837429,330,95.285
F,5,2743421,sinestep7.wav,None,1000,15,2839429,331,97.285
F,5,2743421,vowelstep7.wav,None,1000,15,2841429,341,99.285
F,5,2743421,vowelstep3.wav,None,1000,15,2843429,336,101.285
F,5,2743421,sinestep3.wav,None,1000,15,2845430,339,103.285
F,5,2743421,silence.wav,None,1000,15,2847430,349,105.285
F,5,2743421,sinestep1.wav,None,1000,15,2849430,320,107.285
F,5,2743421,sinestep1.wav,None,1000,15,2851430,330,109.285
F,5,2743421,silence.wav,None,1000,15,2853430,330,111.285
F,5,2743421,sinestep7.wav,None,1000,15,2855430,337,113.285
F,5,2743421,vowelstep3.wav,None,1000,15,2857430,340,115.285
F,5,2743421,sinestep3.wav,None,1000,15,2859430,335,117.285
F,5,2743421,vowelstep3.wav,None,1000,15,2861430,340,119.285
F,5,2743421,vowelstep7.wav,None,1000,15,2863430,330,121.285
F,5,2743421,vowelstep7.wav,None,1000,15,2865430,329,123.285
F,5,2743421,vowelstep5.wav,None,1000,15,2867430,329,125.285
F,5,2743421,sinestep1.wav,None,1000,15,2869430,338,127.285
F,5,2743421,silence.wav,None,1000,15,2871430,339,129.285
F,5,2743421,sinestep1.wav,None,1000,15,2873430,340,131.285
F,5,2743421,sinestep3.wav,None,1000,15,2875430,345,133.285
F,5,2743421,sinestep1_catch.wav,2,97,15,2877430,329,135.285
F,5,2743421,sinestep3.wav,2,614,15,2879430,1232,137.285
F,5,2743421,sinestep3.wav,None,1000,15,2881431,716,139.285
F,5,2743421,silence.wav,None,1000,15,2883431,328,141.285
F,5,2743421,silence.wav,None,1000,15,2885430,338,143.285
F,5,2743421,sinestep7.wav,None,1000,15,2887430,338,145.285
F,5,2743421,sinestep5.wav,None,1000,15,2889430,349,147.285
F,5,2743421,vowelstep1.wav,None,1000,15,2891430,315,149.285
F,5,2743421,sinestep7.wav,None,1000,15,2893430,328,151.285
F,5,2743421,silence.wav,None,1000,15,2895430,326,153.285
F,5,2743421,sinestep3_catch.wav,None,1000,15,2897430,330,155.285
F,5,2743421,vowelstep5.wav,None,1000,15,2899431,338,157.285
F,5,2743421,sinestep3.wav,None,1000,15,2901431,334,159.285
F,5,2743421,vowelstep5.wav,None,1000,15,2903431,333,161.285
F,5,2743421,sinestep3.wav,None,1000,15,2905431,323,163.285
F,5,2743421,vowelstep3.wav,None,1000,15,2907431,324,165.285
F,5,2743421,vowelstep1.wav,None,1000,15,2909431,321,167.285
F,5,2743421,sinestep5.wav,None,1000,15,2911430,324,169.285
F,5,2743421,vowelstep5.wav,None,1000,15,2913430,331,171.285
F,5,2743421,vowelstep1.wav,None,1000,15,2915431,331,173.285
F,5,2743421,vowelstep1.wav,None,1000,15,2917431,332,175.285
F,5,2743421,sinestep7.wav,None,1000,15,2919431,313,177.285
F,5,2743421,vowelstep1.wav,None,1000,15,2921431,326,179.285
F,5,2743421,sinestep5.wav,None,1000,15,2923431,322,181.285
F,5,2743421,vowelstep7.wav,None,1000,15,2925431,327,183.285
F,5,2743421,sinestep1.wav,None,1000,15,2927431,333,185.285
F,5,2743421,vowelstep7.wav,None,1000,15,2929431,338,187.285
F,5,2743421,sinestep5.wav,None,1000,15,2931431,340,189.285
F,5,2743421,vowelstep5.wav,None,1000,15,2933432,347,191.285
F,5,2743421,silence.wav,None,1000,15,2935431,327,193.285
F,5,2743421,sinestep7.wav,None,1000,15,2937431,324,195.285
F,5,2743421,vowelstep5.wav,None,1000,15,2939431,326,197.285
F,5,2743421,vowelstep7.wav,None,1000,15,2941431,337,199.285
F,5,2743421,silence.wav,None,1000,15,2943431,336,201.285
F,5,2743421,vowelstep1.wav,None,1000,15,2945431,338,203.285
F,5,2743421,vowelstep7.wav,None,1000,15,2947431,346,205.285
F,5,2743421,vowelstep7.wav,None,1000,15,2949431,327,207.285
F,5,2743421,vowelstep3.wav,None,1000,15,2951432,328,209.285
F,5,2743421,vowelstep3.wav,None,1000,15,2953432,325,211.285
F,5,2743421,silence.wav,None,1000,15,2955432,335,213.285
F,5,2743421,sinestep7.wav,None,1000,15,2957432,332,215.285
F,5,2743421,sinestep1.wav,None,1000,15,2959431,337,217.285
F,5,2743421,silence.wav,None,1000,15,2961431,345,219.285
F,5,2743421,vowelstep1.wav,None,1000,15,2963431,317,221.285
F,5,2743421,sinestep5_catch.wav,2,310,15,2965431,327,223.285
F,5,2743421,sinestep1.wav,None,1000,15,2967432,1015,225.285
F,5,2743421,silence.wav,None,1000,15,2969432,335,227.285
F,5,2743421,sinestep7.wav,None,1000,15,2971432,335,229.285
F,5,2743421,sinestep7.wav,None,1000,15,2973432,334,231.285
F,5,2743421,silence.wav,None,1000,15,2975432,334,233.285
F,5,2743421,vowelstep5.wav,None,1000,15,2977432,325,235.285
F,5,2743421,sinestep7.wav,None,1000,15,2979432,318,237.285
F,5,2743421,sinestep5.wav,None,1000,15,2981432,321,239.285
F,5,2743421,sinestep5.wav,None,1000,15,2983431,323,241.285
F,5,2743421,silence.wav,None,1000,15,2985432,335,243.285
F,5,2743421,vowelstep3.wav,None,1000,15,2987432,334,245.285
F,5,2743421,vowelstep3.wav,None,1000,15,2989432,342,247.285
F,5,2743421,silence.wav,None,1000,15,2991432,323,249.285
F,5,2743421,sinestep1.wav,None,1000,15,2993432,320,251.285
F,5,2743421,sinestep1.wav,None,1000,15,2995432,323,253.285
F,5,2743421,vowelstep5.wav,None,1000,15,2997432,333,255.285
F,5,2743421,silence.wav,None,1000,15,2999432,332,257.285
F,5,2743421,sinestep5.wav,None,1000,15,3001432,334,259.285
F,5,2743421,sinestep5.wav,2,182,15,3003433,330,261.285
F,5,2743421,sinestep5.wav,None,1000,15,3005433,1139,263.285
F,5,2743421,sinestep7.wav,2,512,15,3007432,322,265.285
F,5,2743421,sinestep7_catch.wav,2,158,15,3009432,839,267.285
F,5,2743421,sinestep7_catch.wav,1,246,15,3011432,1162,269.285
F,5,2743421,sinestep1.wav,None,1000,15,3013432,1085,271.285
F,5,2743421,vowelstep7.wav,None,1000,15,3015432,332,273.285
F,5,2743421,sinestep3.wav,None,1000,15,3017432,343,275.285
F,5,2743421,sinestep3.wav,None,1000,15,3019432,339,277.285
F,5,2743421,silence.wav,None,1000,15,3021433,322,279.285
F,5,2743421,sinestep5_catch.wav,1,108,15,3023433,321,281.285
F,5,2743421,sinestep5.wav,None,1000,15,3025433,1212,283.285
F,5,2743421,silence.wav,None,1000,15,3027433,332,285.285
F,5,2743421,vowelstep5.wav,None,1000,15,3029433,331,287.285
F,5,2743421,silence.wav,None,1000,15,3031432,332,289.285
F,5,2743421,sinestep1.wav,None,1000,15,3033432,338,291.285
F,5,2743421,sinestep3.wav,None,1000,15,3035432,341,293.285
F,5,2743421,vowelstep3.wav,None,1000,15,3037433,341,295.285
F,5,2743421,silence.wav,None,1000,15,3039433,350,297.285
F,5,2743421,sinestep5.wav,None,1000,15,3041433,331,299.285
F,5,2743421,vowelstep5.wav,None,1000,15,3043433,330,301.285
F,5,2743421,vowelstep5.wav,None,1000,15,3045433,331,303.285
F,5,2743421,vowelstep1.wav,None,1000,15,3047433,341,305.285
F,5,2743421,sinestep3.wav,None,1000,15,3049433,341,307.285
F,5,2743421,silence.wav,None,1000,15,3051433,336,309.285
F,5,2743421,sinestep3_catch.wav,None,1000,15,3053433,320,311.285
F,5,2743421,vowelstep1.wav,None,1000,15,3055433,322,313.285
F,5,2743421,vowelstep7.wav,None,1000,15,3057433,329,315.285
F,5,2743421,vowelstep7.wav,None,1000,15,3059433,325,317.285
F,5,2743421,vowelstep1.wav,None,1000,15,3061433,336,319.285
E,6,3121276,vowelstep7.wav,None,1000,15,3121284,0,1.285
E,6,3121276,sinestep3.wav,None,1000,15,3123284,329,3.285
E,6,3121276,sinestep5.wav,None,1000,15,3125285,337,5.285
E,6,3121276,sinestep1.wav,None,1000,15,3127285,341,7.285
E,6,3121276,sinestep5.wav,None,1000,15,3129284,335,9.285
E,6,3121276,silence.wav,None,1000,15,3131284,321,11.285
E,6,3121276,vowelstep1.wav,None,1000,15,3133284,323,13.285
E,6,3121276,vowelstep7.wav,None,1000,15,3135284,326,15.285
E,6,3121276,vowelstep1.wav,None,1000,15,3137284,328,17.285
E,6,3121276,sinestep1_catch.wav,None,1000,15,3139284,339,19.285
E,6,3121276,vowelstep5.wav,None,1000,15,3141284,334,21.285
E,6,3121276,sinestep5.wav,None,1000,15,3143285,339,23.285
E,6,3121276,vowelstep5.wav,None,1000,15,3145285,315,25.285
E,6,3121276,vowelstep3.wav,None,1000,15,3147285,330,27.285
E,6,3121276,sinestep1.wav,None,1000,15,3149285,322,29.285
E,6,3121276,vowelstep5.wav,None,1000,15,3151285,325,31.285
E,6,3121276,silence.wav,None,1000,15,3153284,336,33.285
E,6,3121276,silence.wav,None,1000,15,3155284,338,35.285
E,6,3121276,sinestep3.wav,None,1000,15,3157284,337,37.285
E,6,3121276,sinestep3.wav,None,1000,15,3159284,343,39.285
E,6,3121276,sinestep3.wav,None,1000,15,3161285,326,41.285
E,6,3121276,sinestep1.wav,None,1000,15,3163285,326,43.285
E,6,3121276,vowelstep1.wav,None,1000,15,3165285,325,45.285
E,6,3121276,sinestep1.wav,None,1000,15,3167285,327,47.285
E,6,3121276,vowelstep7.wav,None,1000,15,3169285,337,49.285
E,6,3121276,vowelstep5.wav,None,1000,15,3171285,334,51.285
E,6,3121276,sinestep7.wav,None,1000,15,3173285,348,53.285
E,6,3121276,sinestep1.wav,None,1000,15,3175285,317,55.285
E,6,3121276,vowelstep5.wav,None,1000,15,3177285,328,57.285
E,6,3121276,sinestep3.wav,None,1000,15,3179285,326,59.285
E,6,3121276,vowelstep1.wav,None,1000,15,3181285,337,61.285
E,6,3121276,vowelstep5.wav,None,1000,15,3183285,335,63.285
E,6,3121276,vowelstep3.wav,None,1000,15,3185285,337,65.285
E,6,3121276,sinestep1.wav,None,1000,15,3187285,337,67.285
E,6,3121276,vowelstep3.wav,None,1000,15,3189285,324,69.285
E,6,3121276,silence.wav,None,1000,15,3191285,326,71.285
E,6,3121276,vowelstep3.wav,None,1000,15,3193285,326,73.285
E,6,3121276,sinestep3_catch.wav,1,242,15,3195286,337,75.285
E,6,3121276,sinestep3.wav,None,1000,15,3197286,1093,77.285
E,6,3121276,vowelstep3.wav,None,1000,15,3199286,337,79.285
E,6,3121276,vowelstep7.wav,None,1000,15,3201285,347,81.285
E,6,3121276,silence.wav,None,1000,15,3203285,316,83.285
E,6,3121276,sinestep3.wav,None,1000,15,3205285,326,85.285
E,6,3121276,silence.wav,None,1000,15,3207285,323,87.285
E,6,3121276,sinestep1.wav,None,1000,15,3209285,338,89.285
E,6,3121276,sinestep5_catch.wav,1,239,15,3211285,331,91.285
E,6,3121276,vowelstep3.wav,None,1000,15,3213286,1095,93.285
E,6,3121276,sinestep5.wav,None,1000,15,3215286,334,95.285
E,6,3121276,vowelstep7.wav,None,1000,15,3217286,325,97.285
E,6,3121276,sinestep1.wav,None,1000,15,3219286,323,99.285
E,6,3121276,sinestep5.wav,None,1000,15,3221286,321,101.285
E,6,3121276,sinestep5.wav,None,1000,15,3223286,324,103.285
E,6,3121276,vowelstep7.wav,None,1000,15,3225286,334,105.285
E,6,3121276,vowelstep3.wav,None,1000,15,3227285,336,107.285
E,6,3121276,vowelstep7.wav,None,1000,15,3229285,344,109.285
E,6,3121276,sinestep5.wav,None,1000,15,3231286,346,111.285
E,6,3121276,vowelstep3.wav,None,1000,15,3233286,324,113.285
E,6,3121276,vowelstep7.wav,None,1000,15,3235286,325,115.285
E,6,3121276,sinestep3.wav,None,1000,15,3237286,320,117.285
E,6,3121276,vowelstep7.wav,None,1000,15,3239286,333,119.285
E,6,3121276,silence.wav,None,1000,15,3241286,334,121.285
E,6,3121276,silence.wav,None,1000,15,3243286,335,123.285
E,6,3121276,sinestep7.wav,None,1000,15,3245286,309,125.285
E,6,3121276,sinestep7_catch.wav,None,1000,15,3247287,322,127.285
E,6,3121276,sinestep7.wav,None,1000,15,3249286,321,129.285
E,6,3121276,silence.wav,None,1000,15,3251286,353,131.285
E,6,3121276,sinestep7_catch.wav,1,121,15,3253286,328,133.285
E,6,3121276,sinestep7.wav,None,1000,15,3255286,1210,135.285
E,6,3121276,sinestep5_catch.wav,1,244,15,3257286,331,137.285
E,6,3121276,sinestep1.wav,None,1000,15,3259286,1097,139.285
E,6,3121276,sinestep1.wav,None,1000,15,3261286,343,141.285
E,6,3121276,sinestep1.wav,None,1000,15,3263286,340,143.285
E,6,3121276,sinestep3.wav,None,1000,15,3265287,317,145.285
E,6,3121276,vowelstep5.wav,None,1000,15,3267287,327,147.285
E,6,3121276,silence.wav,None,1000,15,3269287,323,149.285
E,6,3121276,sinestep3_catch.wav,None,1000,15,3271287,327,151.285
E,6,3121276,silence.wav,None,1000,15,3273287,337,153.285
E,6,3121276,sinestep7.wav,None,1000,15,3275286,338,155.285
E,6,3121276,sinestep5.wav,None,1000,15,3277286,339,157.285
E,6,3121276,silence.wav,None,1000,15,3279286,319,159.285
E,6,3121276,vowelstep5.wav,None,1000,15,3281286,329,161.285
E,6,3121276,vowelstep1.wav,None,1000,15,3283287,329,163.285
E,6,3121276,vowelstep3.wav,None,1000,15,3285287,323,165.285
E,6,3121276,sinestep5.wav,None,1000,15,3287287,337,167.285
E,6,3121276,sinestep7.wav,None,1000,15,3289287,336,169.285
E,6,3121276,vowelstep1.wav,None,1000,15,3291287,338,171.285
E,6,3121276,vowelstep7.wav,None,1000,15,3293287,348,173.285
E,6,3121276,sinestep3.wav,None,1000,15,3295287,329,175.285
E,6,3121276,silence.wav,None,1000,15,3297287,330,177.285
E,6,3121276,sinestep1_catch.wav,1,111,15,3299286,329,179.285
E,6,3121276,sinestep7.wav,1,499,15,3301287,1224,181.285
E,6,3121276,vowelstep1.wav,None,1000,15,3303287,839,183.285
E,6,3121276,sinestep5.wav,None,1000,15,3305287,337,185.285
E,6,3121276,sinestep5.wav,None,1000,15,3307287,319,187.285
E,6,3121276,vowelstep1.wav,None,1000,15,3309287,327,189.285
E,6,3121276,sinestep7.wav,None,1000,15,3311287,328,191.285
E,6,3121276,sinestep3.wav,None,1000,15,3313287,327,193.285
E,6,3121276,sinestep7.wav,None,1000,15,3315287,329,195.285
E,6,3121276,silence.wav,None,1000,15,3317288,335,197.285
E,6,3121276,vowelstep1.wav,None,1000,15,3319288,337,199.285
E,6,3121276,sinestep1.wav,None,1000,15,3321288,337,201.285
E,6,3121276,vowelstep1.wav,None,1000,15,3323287,327,203.285
E,6,3121276,vowelstep1.wav,None,1000,15,3325287,328,205.285
E,6,3121276,vowelstep1_catch.wav,None,1000,15,3327287,327,207.285
E,6,3121276,vowelstep1.wav,None,1000,15,3329287,327,209.285
E,6,3121276,vowelstep1.wav,None,1000,15,3331287,337,211.285
E,6,3121276,silence.wav,None,1000,15,3333287,334,213.285
E,6,3121276,sinestep7.wav,None,1000,15,3335288,348,215.285
E,6,3121276,vowelstep7.wav,None,1000,15,3337288,314,217.285
E,6,3121276,vowelstep3_catch.wav,1,142,15,3339288,329,219.285
E,6,3121276,vowelstep5.wav,None,1000,15,3341288,1184,221.285
E,6,3121276,sinestep3.wav,None,1000,15,3343288,329,223.285
E,6,3121276,silence.wav,None,1000,15,3345288,339,225.285
E,6,3121276,sinestep1.wav,None,1000,15,3347287,337,227.285
E,6,3121276,sinestep5.wav,None,1000,15,3349287,338,229.285
E,6,3121276,sinestep5.wav,None,1000,15,3351287,347,231.285
E,6,3121276,sinestep3.wav,None,1000,15,3353288,327,233.285
E,6,3121276,sinestep5.wav,None,1000,15,3355288,323,235.285
E,6,3121276,vowelstep3.wav,None,1000,15,3357288,326,237.285
E,6,3121276,sinestep7.wav,None,1000,15,3359288,336,239.285
E,6,3121276,sinestep7.wav,None,1000,15,3361288,336,241.285
E,6,3121276,silence.wav,None,1000,15,3363288,343,243.285
E,6,3121276,sinestep3.wav,None,1000,15,3365288,316,245.285
E,6,3121276,sinestep3.wav,None,1000,15,3367288,326,247.285
E,6,3121276,vowelstep3.wav,None,1000,15,3369288,326,249.285
E,6,3121276,silence.wav,None,1000,15,3371288,337,251.285
E,6,3121276,sinestep7.wav,None,1000,15,3373288,334,253.285
E,6,3121276,silence.wav,None,1000,15,3375288,335,255.285
E,6,3121276,vowelstep7.wav,None,1000,15,3377288,337,257.285
E,6,3121276,vowelstep3.wav,None,1000,15,3379288,346,259.285
E,6,3121276,silence.wav,None,1000,15,3381288,323,261.285
E,6,3121276,vowelstep3.wav,None,1000,15,3383288,325,263.285
E,6,3121276,vowelstep1.wav,None,1000,15,3385288,324,265.285
E,6,3121276,vowelstep5.wav,None,1000,15,3387289,336,267.285
E,6,3121276,silence.wav,None,1000,15,3389289,333,269.285
E,6,3121276,vowelstep3.wav,None,1000,15,3391289,334,271.285
E,6,3121276,sinestep1.wav,None,1000,15,3393289,344,273.285
E,6,3121276,vowelstep5_catch.wav,None,1000,15,3395289,321,275.285
E,6,3121276,sinestep7.wav,None,1000,15,3397288,324,277.285
E,6,3121276,sinestep7.wav,None,1000,15,3399288,324,279.285
E,6,3121276,vowelstep7.wav,None,1000,15,3401288,333,281.285
E,6,3121276,silence.wav,None,1000,15,3403288,335,283.285
E,6,3121276,sinestep5.wav,None,1000,15,3405289,333,285.285
E,6,3121276,silence.wav,None,1000,15,3407289,314,287.285
E,6,3121276,silence.wav,None,1000,15,3409289,314,289.285
E,6,3121276,vowelstep5.wav,None,1000,15,3411289,324,291.285
E,6,3121276,vowelstep5.wav,None,1000,15,3413289,319,293.285
E,6,3121276,silence.wav,None,1000,15,3415289,333,295.285
E,6,3121276,vowelstep5.wav,None,1000,15,3417289,330,297.285
E,6,3121276,vowelstep7_catch.wav,None,1000,15,3419288,335,299.285
E,6,3121276,vowelstep7_catch.wav,None,1000,15,3421288,332,301.285
E,6,3121276,vowelstep5.wav,None,1000,15,3423289,322,303.285
E,6,3121276,sinestep1.wav,None,1000,15,3425289,322,305.285
E,6,3121276,vowelstep3.wav,None,1000,15,3427289,318,307.285
E,6,3121276,vowelstep5_catch.wav,1,515,15,3429289,331,309.285
E,6,3121276,vowelstep7.wav,None,1000,15,3431289,816,311.285
E,6,3121276,vowelstep5.wav,None,1000,15,3433289,331,313.285
E,6,3121276,vowelstep7.wav,None,1000,15,3435289,343,315.285
E,6,3121276,vowelstep1.wav,None,1000,15,3437289,321,317.285
E,6,3121276,vowelstep3_catch.wav,None,1000,15,3439289,321,319.285
D,7,3498644,sinestep5.wav,None,1000,15,3498657,0,1.285
D,7,3498644,vowelstep1_catch.wav,1,271,15,3500657,313,3.285
D,7,3498644,sinestep7.wav,None,1000,15,3502657,1054,5.285
D,7,3498644,vowelstep3.wav,None,1000,15,3504657,326,7.285
D,7,3498644,vowelstep3_catch.wav,1,212,15,3506657,321,9.285
D,7,3498644,vowelstep5_catch.wav,None,1000,15,3508657,1113,11.285
D,7,3498644,sinestep7.wav,None,1000,15,3510657,337,13.285
D,7,3498644,silence.wav,None,1000,15,3512657,334,15.285
D,7,3498644,vowelstep7_catch.wav,None,1000,15,3514657,345,17.285
D,7,3498644,vowelstep7.wav,None,1000,15,3516657,325,19.285
D,7,3498644,vowelstep3.wav,None,1000,15,3518657,322,21.285
D,7,3498644,vowelstep7_catch.wav,None,1000,15,3520657,322,23.285
D,7,3498644,vowelstep5.wav,None,1000,15,3522657,332,25.285
D,7,3498644,sinestep7.wav,None,1000,15,3524657,336,27.285
D,7,3498644,silence.wav,None,1000,15,3526657,334,29.285
D,7,3498644,vowelstep1.wav,None,1000,15,3528658,314,31.285
D,7,3498644,vowelstep1.wav,None,1000,15,3530658,324,33.285
D,7,3498644,vowelstep7.wav,None,1000,15,3532657,325,35.285
D,7,3498644,vowelstep3.wav,None,1000,15,3534657,321,37.285
D,7,3498644,sinestep3.wav,None,1000,15,3536657,335,39.285
D,7,3498644,sinestep1.wav,None,1000,15,3538657,330,41.285
D,7,3498644,vowelstep1.wav,None,1000,15,3540657,333,43.285
D,7,3498644,vowelstep1.wav,None,1000,15,3542657,342,45.285
D,7,3498644,sinestep7.wav,None,1000,15,3544658,325,47.285
D,7,3498644,sinestep3.wav,None,1000,15,3546658,323,49.285
D,7,3498644,vowelstep5_catch.wav,1,470,15,3548658,318,51.285
D,7,3498644,sinestep7.wav,None,1000,15,3550658,862,53.285
D,7,3498644,vowelstep5.wav,None,1000,15,3552658,332,55.285
D,7,3498644,sinestep3.wav,None,1000,15,3554658,330,57.285
D,7,3498644,sinestep7.wav,None,1000,15,3556658,342,59.285
D,7,3498644,vowelstep3.wav,None,1000,15,3558657,311,61.285
D,7,3498644,vowelstep3.wav,None,1000,15,3560657,318,63.285
D,7,3498644,vowelstep3_catch.wav,1,884,15,3562658,323,65.285
D,7,3498644,silence.wav,None,1000,15,3564658,441,67.285
D,7,3498644,vowelstep7.wav,None,1000,15,3566658,328,69.285
D,7,3498644,silence.wav,None,1000,15,3568658,323,71.285
D,7,3498644,sinestep1.wav,None,1000,15,3570658,328,73.285
D,7,3498644,vowelstep5.wav,1,758,15,3572658,314,75.285
D,7,3498644,vowelstep1.wav,None,1000,15,3574658,558,77.285
D,7,3498644,sinestep7.wav,None,1000,15,3576658,317,79.285
D,7,3498644,vowelstep1.wav,None,1000,15,3578658,318,81.285
D,7,3498644,sinestep7.wav,None,1000,15,3580659,327,83.285
D,7,3498644,vowelstep7.wav,None,1000,15,3582658,327,85.285
D,7,3498644,vowelstep5.wav,None,1000,15,3584658,322,87.285
D,7,3498644,vowelstep1.wav,None,1000,15,3586658,337,89.285
D,7,3498644,sinestep5.wav,None,1000,15,3588658,317,91.285
D,7,3498644,sinestep5.wav,None,1000,15,3590658,315,93.285
D,7,3498644,vowelstep3.wav,None,1000,15,3592658,318,95.285
D,7,3498644,silence.wav,None,1000,15,3594658,328,97.285
D,7,3498644,sinestep1.wav,None,1000,15,3596658,329,99.285
D,7,3498644,sinestep1.wav,None,1000,15,3598659,325,101.285
D,7,3498644,sinestep3.wav,None,1000,15,3600659,307,103.285
D,7,3498644,vowelstep1.wav,None,1000,15,3602659,318,105.285
D,7,3498644,sinestep7.wav,None,1000,15,3604659,319,107.285
D,7,3498644,vowelstep3.wav,None,1000,15,3606658,317,109.285
D,7,3498644,silence.wav,None,1000,15,3608658,329,111.285
D,7,3498644,vowelstep5.wav,None,1000,15,3610658,328,113.285
D,7,3498644,vowelstep1.wav,None,1000,15,3612658,329,115.285
D,7,3498644,vowelstep1_catch.wav,None,1000,15,3614659,335,117.285
D,7,3498644,vowelstep7.wav,None,1000,15,3616659,315,119.285
D,7,3498644,sinestep5.wav,None,1000,15,3618659,316,121.285
D,7,3498644,vowelstep7.wav,None,1000,15,3620659,318,123.285
D,7,3498644,sinestep1.wav,None,1000,15,3622659,327,125.285
D,7,3498644,sinestep1.wav,None,1000,15,3624659,328,127.285
D,7,3498644,vowelstep3.wav,None,1000,15,3626659,328,129.285
D,7,3498644,sinestep1.wav,None,1000,15,3628659,338,131.285
D,7,3498644,silence.wav,None,1000,15,3630658,316,133.285
D,7,3498644,sinestep3.wav,None,1000,15,3632659,315,135.285
D,7,3498644,silence.wav,None,1000,15,3634659,316,137.285
D,7,3498644,vowelstep3.wav,None,1000,15,3636659,327,139.285
D,7,3498644,vowelstep5.wav,None,1000,15,3638659,326,141.285
D,7,3498644,silence.wav,None,1000,15,3640659,328,143.285
D,7,3498644,sinestep5.wav,None,1000,15,3642659,337,145.285
D,7,3498644,sinestep5.wav,None,1000,15,3644659,317,147.285
D,7,3498644,sinestep1.wav,None,1000,15,3646659,317,149.285
D,7,3498644,vowelstep5.wav,None,1000,15,3648659,313,151.285
D,7,3498644,vowelstep5.wav,None,1000,15,3650660,317,153.285
D,7,3498644,sinestep1_catch.wav,None,1000,15,3652660,327,155.285
D,7,3498644,sinestep5.wav,None,1000,15,3654659,325,157.285
D,7,3498644,vowelstep3.wav,None,1000,15,3656659,337,159.285
D,7,3498644,vowelstep7.wav,1,812,15,3658659,335,161.285
D,7,3498644,vowelstep3.wav,None,1000,15,3660659,523,163.285
D,7,3498644,sinestep3.wav,None,1000,15,3662659,313,165.285
D,7,3498644,sinestep1.wav,None,1000,15,3664659,317,167.285
D,7,3498644,silence.wav,None,1000,15,3666659,321,169.285
D,7,3498644,sinestep1.wav,None,1000,15,3668660,326,171.285
D,7,3498644,vowelstep1.wav,None,1000,15,3670660,334,173.285
D,7,3498644,vowelstep3.wav,None,1000,15,3672660,335,175.285
D,7,3498644,silence.wav,None,1000,15,3674660,335,177.285
D,7,3498644,sinestep7.wav,None,1000,15,3676660,315,179.285
D,7,3498644,silence.wav,None,1000,15,3678659,321,181.285
D,7,3498644,vowelstep7.wav,None,1000,15,3680659,299,183.285
D,7,3498644,sinestep3.wav,None,1000,15,3682659,324,185.285
D,7,3498644,vowelstep1.wav,None,1000,15,3684660,325,187.285
D,7,3498644,sinestep7.wav,None,1000,15,3686660,333,189.285
D,7,3498644,silence.wav,None,1000,15,3688660,332,191.285
D,7,3498644,sinestep1.wav,None,1000,15,3690660,314,193.285
D,7,3498644,sinestep3.wav,None,1000,15,3692660,314,195.285
D,7,3498644,sinestep5.wav,None,1000,15,3694660,321,197.285
D,7,3498644,vowelstep3.wav,None,1000,15,3696660,322,199.285
D,7,3498644,sinestep5.wav,None,1000,15,3698660,324,201.285
D,7,3498644,sinestep5.wav,None,1000,15,3700660,333,203.285
D,7,3498644,sinestep3.wav,None,1000,15,3702660,334,205.285
D,7,3498644,sinestep3.wav,None,1000,15,3704660,333,207.285
D,7,3498644,sinestep5.wav,None,1000,15,3706660,324,209.285
D,7,3498644,sinestep3_catch.wav,1,168,15,3708660,323,211.285
D,7,3498644,vowelstep7.wav,None,1000,15,3710660,1150,213.285
D,7,3498644,sinestep1.wav,None,1000,15,3712660,321,215.285
D,7,3498644,sinestep7.wav,None,1000,15,3714660,331,217.285
D,7,3498644,vowelstep1.wav,1,201,15,3716660,333,219.285
D,7,3498644,sinestep5.wav,None,1000,15,3718660,1140,221.285
D,7,3498644,silence.wav,None,1000,15,3720661,310,223.285
D,7,3498644,sinestep5_catch.wav,1,292,15,3722661,321,225.285
D,7,3498644,sinestep5.wav,None,1000,15,3724661,1030,227.285
D,7,3498644,silence.wav,None,1000,15,3726660,322,229.285
D,7,3498644,vowelstep7.wav,None,1000,15,3728660,328,231.285
D,7,3498644,sinestep3.wav,None,1000,15,3730660,334,233.285
D,7,3498644,vowelstep5.wav,None,1000,15,3732660,331,235.285
D,7,3498644,vowelstep7.wav,None,1000,15,3734660,343,237.285
D,7,3498644,vowelstep5.wav,None,1000,15,3736661,322,239.285
D,7,3498644,silence.wav,None,1000,15,3738661,321,241.285
D,7,3498644,silence.wav,None,1000,15,3740661,321,243.285
D,7,3498644,silence.wav,None,1000,15,3742661,331,245.285
D,7,3498644,sinestep7.wav,None,1000,15,3744661,327,247.285
D,7,3498644,sinestep5.wav,None,1000,15,3746661,331,249.285
D,7,3498644,sinestep7_catch.wav,1,895,15,3748661,340,251.285
D,7,3498644,vowelstep1.wav,None,1000,15,3750661,426,253.285
D,7,3498644,vowelstep1.wav,None,1000,15,3752660,316,255.285
D,7,3498644,vowelstep3.wav,None,1000,15,3754661,314,257.285
D,7,3498644,silence.wav,None,1000,15,3756661,314,259.285
D,7,3498644,sinestep5.wav,1,236,15,3758661,324,261.285
D,7,3498644,vowelstep7.wav,None,1000,15,3760661,1082,263.285
D,7,3498644,vowelstep3.wav,None,1000,15,3762661,334,265.285
D,7,3498644,vowelstep7.wav,None,1000,15,3764661,305,267.285
D,7,3498644,vowelstep5.wav,None,1000,15,3766661,316,269.285
D,7,3498644,sinestep1.wav,None,1000,15,3768661,319,271.285
D,7,3498644,sinestep7.wav,None,1000,15,3770661,329,273.285
D,7,3498644,sinestep3.wav,None,1000,15,3772662,329,275.285
D,7,3498644,silence.wav,None,1000,15,3774662,328,277.285
D,7,3498644,sinestep7.wav,None,1000,15,3776661,334,279.285
D,7,3498644,vowelstep5.wav,None,1000,15,3778661,318,281.285
D,7,3498644,sinestep1.wav,None,1000,15,3780661,318,283.285
D,7,3498644,vowelstep1.wav,None,1000,15,3782661,315,285.285
D,7,3498644,sinestep1.wav,None,1000,15,3784661,329,287.285
D,7,3498644,vowelstep5.wav,None,1000,15,3786661,327,289.285
D,7,3498644,silence.wav,None,1000,15,3788661,329,291.285
D,7,3498644,sinestep3.wav,None,1000,15,3790662,336,293.285
D,7,3498644,vowelstep5.wav,None,1000,15,3792662,318,295.285
D,7,3498644,silence.wav,None,1000,15,3794662,312,297.285
D,7,3498644,sinestep3.wav,None,1000,15,3796662,317,299.285
D,7,3498644,vowelstep7.wav,None,1000,15,3798662,329,301.285
D,7,3498644,sinestep7_catch.wav,1,206,15,3800661,326,303.285
D,7,3498644,sinestep5_catch.wav,None,1000,15,3802661,1121,305.285
D,7,3498644,sinestep3.wav,None,1000,15,3804661,338,307.285
D,7,3498644,vowelstep5.wav,None,1000,15,3806662,314,309.285
D,7,3498644,silence.wav,None,1000,15,3808662,315,311.285
D,7,3498644,sinestep3_catch.wav,1,156,15,3810662,315,313.285
D,7,3498644,silence.wav,None,1000,15,3812662,1170,315.285
D,7,3498644,vowelstep7.wav,None,1000,15,3814662,326,317.285
D,7,3498644,silence.wav,None,1000,15,3816662,326,319.285
B,8,3879090,vowelstep5.wav,None,1000,15,3879097,0,1.285
B,8,3879090,silence.wav,None,1000,15,3881096,338,3.285
B,8,3879090,sinestep7.wav,None,1000,15,3883096,338,5.285
B,8,3879090,vowelstep1_catch.wav,1,613,15,3885096,328,7.285
B,8,3879090,vowelstep7.wav,None,1000,15,3887096,714,9.285
B,8,3879090,vowelstep3.wav,None,1000,15,3889096,329,11.285
B,8,3879090,vowelstep7.wav,None,1000,15,3891096,329,13.285
B,8,3879090,vowelstep5.wav,None,1000,15,3893096,338,15.285
B,8,3879090,vowelstep7.wav,None,1000,15,3895097,339,17.285
B,8,3879090,vowelstep3.wav,None,1000,15,3897097,347,19.285
B,8,3879090,silence.wav,None,1000,15,3899097,314,21.285
B,8,3879090,silence.wav,None,1000,15,3901097,326,23.285
B,8,3879090,sinestep5.wav,None,1000,15,3903097,325,25.285
B,8,3879090,sinestep1.wav,None,1000,15,3905096,330,27.285
B,8,3879090,vowelstep7.wav,None,1000,15,3907096,336,29.285
B,8,3879090,sinestep5.wav,None,1000,15,3909096,339,31.285
B,8,3879090,vowelstep1.wav,None,1000,15,3911096,337,33.285
B,8,3879090,vowelstep7.wav,None,1000,15,3913097,317,35.285
B,8,3879090,vowelstep3.wav,None,1000,15,3915097,326,37.285
B,8,3879090,sinestep5.wav,None,1000,15,3917097,326,39.285
B,8,3879090,vowelstep1.wav,None,1000,15,3919097,326,41.285
B,8,3879090,sinestep3.wav,None,1000,15,3921097,337,43.285
B,8,3879090,vowelstep5.wav,None,1000,15,3923097,337,45.285
B,8,3879090,vowelstep7.wav,None,1000,15,3925097,337,47.285
B,8,3879090,vowelstep3.wav,None,1000,15,3927097,347,49.285
B,8,3879090,sinestep7.wav,None,1000,15,3929097,327,51.285
B,8,3879090,sinestep3.wav,None,1000,15,3931097,326,53.285
B,8,3879090,sinestep1.wav,None,1000,15,3933097,325,55.285
B,8,3879090,sinestep1.wav,None,1000,15,3935097,326,57.285
B,8,3879090,sinestep5.wav,None,1000,15,3937097,337,59.285
B,8,3879090,vowelstep5.wav,None,1000,15,3939097,335,61.285
B,8,3879090,vowelstep3_catch.wav,1,209,15,3941097,315,63.285
B,8,3879090,vowelstep7.wav,None,1000,15,3943097,1105,65.285
B,8,3879090,sinestep1.wav,None,1000,15,3945097,325,67.285
B,8,3879090,vowelstep5.wav,None,1000,15,3947098,321,69.285
B,8,3879090,vowelstep5_catch.wav,1,870,15,3949098,332,71.285
B,8,3879090,vowelstep7.wav,None,1000,15,3951098,461,73.285
B,8,3879090,sinestep3.wav,None,1000,15,3953097,334,75.285
B,8,3879090,vowelstep7_catch.wav,1,109,15,3955097,342,77.285
B,8,3879090,sinestep5.wav,None,1000,15,3957097,1214,79.285
B,8,3879090,vowelstep5.wav,None,1000,15,3959097,323,81.285
B,8,3879090,silence.wav,None,1000,15,3961097,324,83.285
B,8,3879090,silence.wav,None,1000,15,3963097,334,85.285
B,8,3879090,vowelstep3.wav,None,1000,15,3965098,330,87.285
B,8,3879090,silence.wav,None,1000,15,3967098,342,89.285
B,8,3879090,sinestep1.wav,None,1000,15,3969098,342,91.285
B,8,3879090,sinestep1.wav,None,1000,15,3971098,314,93.285
B,8,3879090,sinestep5.wav,None,1000,15,3973098,324,95.285
B,8,3879090,vowelstep7.wav,None,1000,15,3975098,323,97.285
B,8,3879090,sinestep5.wav,None,1000,15,3977097,334,99.285
B,8,3879090,sinestep5.wav,None,1000,15,3979097,329,101.285
B,8,3879090,silence.wav,None,1000,15,3981097,332,103.285
B,8,3879090,vowelstep1.wav,None,1000,15,3983098,340,105.285
B,8,3879090,silence.wav,None,1000,15,3985098,342,107.285
B,8,3879090,sinestep1.wav,None,1000,15,3987098,341,109.285
B,8,3879090,vowelstep7.wav,None,1000,15,3989098,352,111.285
B,8,3879090,silence.wav,None,1000,15,3991098,332,113.285
B,8,3879090,sinestep1.wav,None,1000,15,3993098,332,115.285
B,8,3879090,vowelstep3.wav,None,1000,15,3995098,332,117.285
B,8,3879090,vowelstep5.wav,None,1000,15,3997098,332,119.285
B,8,3879090,silence.wav,None,1000,15,3999099,338,121.285
B,8,3879090,sinestep3.wav,None,1000,15,4001099,343,123.285
B,8,3879090,sinestep5.wav,None,1000,15,4003098,340,125.285
B,8,3879090,silence.wav,None,1000,15,4005098,319,127.285
B,8,3879090,vowelstep5.wav,None,1000,15,4007098,331,129.285
B,8,3879090,sinestep3.wav,None,1000,15,4009098,332,131.285
B,8,3879090,sinestep5.wav,None,1000,15,4011098,331,133.285
B,8,3879090,sinestep5.wav,None,1000,15,4013098,338,135.285
B,8,3879090,sinestep7.wav,None,1000,15,4015098,340,137.285
B,8,3879090,sinestep7.wav,None,1000,15,4017099,340,139.285
B,8,3879090,vowelstep5.wav,None,1000,15,4019099,330,141.285
B,8,3879090,sinestep1.wav,None,1000,15,4021099,330,143.285
B,8,3879090,vowelstep7.wav,None,1000,15,4023099,330,145.285
B,8,3879090,sinestep7.wav,None,1000,15,4025099,329,147.285
B,8,3879090,vowelstep5.wav,None,1000,15,4027098,337,149.285
B,8,3879090,vowelstep1.wav,None,1000,15,4029098,338,151.285
B,8,3879090,sinestep3.wav,None,1000,15,4031098,350,153.285
B,8,3879090,silence.wav,None,1000,15,4033098,319,155.285
B,8,3879090,silence.wav,None,1000,15,4035099,326,157.285
B,8,3879090,sinestep7_catch.wav,1,333,15,4037099,330,159.285
B,8,3879090,vowelstep5.wav,None,1000,15,4039099,991,161.285
B,8,3879090,sinestep7.wav,None,1000,15,4041099,335,163.285
B,8,3879090,vowelstep5.wav,None,1000,15,4043099,337,165.285
B,8,3879090,vowelstep3.wav,None,1000,15,4045099,337,167.285
B,8,3879090,silence.wav,None,1000,15,4047099,348,169.285
B,8,3879090,sinestep3.wav,None,1000,15,4049099,330,171.285
B,8,3879090,sinestep7_catch.wav,1,161,15,4051098,328,173.285
B,8,3879090,sinestep3.wav,None,1000,15,4053099,1166,175.285
B,8,3879090,sinestep5_catch.wav,1,173,15,4055099,336,177.285
B,8,3879090,vowelstep5.wav,None,1000,15,4057099,1163,179.285
B,8,3879090,silence.wav,None,1000,15,4059099,334,181.285
B,8,3879090,sinestep7.wav,1,215,15,4061099,347,183.285
B,8,3879090,silence.wav,None,1000,15,4063099,1111,185.285
B,8,3879090,sinestep3.wav,None,1000,15,4065099,328,187.285
B,8,3879090,silence.wav,None,1000,15,4067099,328,189.285
B,8,3879090,vowelstep7.wav,None,1000,15,4069100,338,191.285
B,8,3879090,vowelstep3.wav,None,1000,15,4071100,335,193.285
B,8,3879090,vowelstep3.wav,None,1000,15,4073100,336,195.285
B,8,3879090,sinestep7.wav,None,1000,15,4075099,316,197.285
B,8,3879090,sinestep7.wav,None,1000,15,4077099,313,199.285
B,8,3879090,sinestep3.wav,None,1000,15,4079099,328,201.285
B,8,3879090,sinestep3_catch.wav,1,230,15,4081099,327,203.285
B,8,3879090,sinestep1.wav,None,1000,15,4083099,1107,205.285
B,8,3879090,sinestep1.wav,None,1000,15,4085099,336,207.285
B,8,3879090,sinestep3.wav,None,1000,15,4087100,336,209.285
B,8,3879090,silence.wav,None,1000,15,4089100,336,211.285
B,8,3879090,silence.wav,None,1000,15,4091100,322,213.285
B,8,3879090,sinestep5_catch.wav,1,246,15,4093100,325,215.285
B,8,3879090,sinestep7.wav,None,1000,15,4095100,1078,217.285
B,8,3879090,sinestep7.wav,None,1000,15,4097100,326,219.285
B,8,3879090,vowelstep3.wav,None,1000,15,4099099,335,221.285
B,8,3879090,sinestep1_catch.wav,1,375,15,4101099,335,223.285
B,8,3879090,vowelstep5.wav,None,1000,15,4103099,970,225.285
B,8,3879090,sinestep1.wav,None,1000,15,4105100,326,227.285
B,8,3879090,vowelstep1.wav,1,208,15,4107100,324,229.285
B,8,3879090,vowelstep1.wav,None,1000,15,4109100,1116,231.285
B,8,3879090,sinestep5.wav,None,1000,15,4111100,334,233.285
B,8,3879090,silence.wav,None,1000,15,4113100,334,235.285
B,8,3879090,silence.wav,None,1000,15,4115100,333,237.285
B,8,3879090,vowelstep1.wav,None,1000,15,4117100,334,239.285
B,8,3879090,vowelstep1.wav,None,1000,15,4119100,324,241.285
B,8,3879090,silence.wav,None,1000,15,4121100,323,243.285
B,8,3879090,vowelstep1_catch.wav,1,711,15,4123100,322,245.285
B,8,3879090,sinestep7.wav,None,1000,15,4125100,607,247.285
B,8,3879090,sinestep1.wav,None,1000,15,4127100,333,249.285
B,8,3879090,vowelstep1.wav,None,1000,15,4129100,332,251.285
B,8,3879090,vowelstep3.wav,None,1000,15,4131100,340,253.285
B,8,3879090,sinestep3.wav,None,1000,15,4133100,343,255.285
B,8,3879090,silence.wav,None,1000,15,4135100,322,257.285
B,8,3879090,vowelstep3.wav,None,1000,15,4137100,323,259.285
B,8,3879090,silence.wav,None,1000,15,4139101,319,261.285
B,8,3879090,vowelstep3.wav,None,1000,15,4141101,331,263.285
B,8,3879090,sinestep5.wav,None,1000,15,4143101,332,265.285
B,8,3879090,vowelstep3_catch.wav,1,193,15,4145101,342,267.285
B,8,3879090,sinestep3.wav,None,1000,15,4147101,1148,269.285
B,8,3879090,sinestep1.wav,None,1000,15,4149100,323,271.285
B,8,3879090,vowelstep3.wav,None,1000,15,4151100,322,273.285
B,8,3879090,vowelstep1.wav,None,1000,15,4153100,333,275.285
B,8,3879090,vowelstep5_catch.wav,None,1000,15,4155100,330,277.285
B,8,3879090,vowelstep1.wav,None,1000,15,4157101,331,279.285
B,8,3879090,vowelstep5.wav,None,1000,15,4159101,331,281.285
B,8,3879090,sinestep7.wav,None,1000,15,4161101,340,283.285
B,8,3879090,vowelstep7.wav,None,1000,15,4163101,321,285.285
B,8,3879090,vowelstep1_catch.wav,1,305,15,4165101,321,287.285
B,8,3879090,sinestep1.wav,None,1000,15,4167101,1016,289.285
B,8,3879090,vowelstep1.wav,None,1000,15,4169101,331,291.285
B,8,3879090,sinestep5.wav,None,1000,15,4171101,327,293.285
B,8,3879090,vowelstep7.wav,None,1000,15,4173100,326,295.285
B,8,3879090,sinestep7.wav,None,1000,15,4175101,340,297.285
B,8,3879090,vowelstep7_catch.wav,1,168,15,4177101,320,299.285
B,8,3879090,sinestep3.wav,None,1000,15,4179101,1144,301.285
B,8,3879090,vowelstep3.wav,None,1000,15,4181101,318,303.285
B,8,3879090,sinestep5.wav,None,1000,15,4183101,327,305.285
B,8,3879090,vowelstep1.wav,None,1000,15,4185101,328,307.285
B,8,3879090,vowelstep7.wav,None,1000,15,4187101,328,309.285
B,8,3879090,vowelstep1.wav,None,1000,15,4189101,324,311.285
B,8,3879090,sinestep7.wav,None,1000,15,4191101,318,313.285
B,8,3879090,sinestep3.wav,None,1000,15,4193102,312,315.285
B,8,3879090,silence.wav,None,1000,15,4195102,317,317.285
B,8,3879090,vowelstep1.wav,None,1000,15,4197101,326,319.285
G,9,4254918,vowelstep3.wav,None,1000,15,4254935,0,1.285
G,9,4254918,vowelstep3.wav,None,1000,15,4256935,312,3.285
G,9,4254918,vowelstep7.wav,None,1000,15,4258935,319,5.285
G,9,4254918,vowelstep3.wav,None,1000,15,4260935,321,7.285
G,9,4254918,sinestep5.wav,1,453,15,4262936,320,9.285
G,9,4254918,sinestep1_catch.wav,1,104,15,4264936,877,11.285
G,9,4254918,silence.wav,None,1000,15,4266936,1207,13.285
G,9,4254918,silence.wav,None,1000,15,4268936,312,15.285
G,9,4254918,vowelstep7.wav,None,1000,15,4270936,312,17.285
G,9,4254918,vowelstep1.wav,None,1000,15,4272936,322,19.285
G,9,4254918,silence.wav,None,1000,15,4274936,319,21.285
G,9,4254918,sinestep1.wav,None,1000,15,4276936,321,23.285
G,9,4254918,vowelstep7.wav,None,1000,15,4278936,304,25.285
G,9,4254918,sinestep5.wav,None,1000,15,4280936,300,27.285
G,9,4254918,sinestep5.wav,None,1000,15,4282936,312,29.285
G,9,4254918,sinestep3.wav,None,1000,15,4284936,312,31.285
G,9,4254918,vowelstep3.wav,None,1000,15,4286936,321,33.285
G,9,4254918,silence.wav,None,1000,15,4288936,321,35.285
G,9,4254918,vowelstep1.wav,None,1000,15,4290936,318,37.285
G,9,4254918,sinestep7.wav,None,1000,15,4292936,321,39.285
G,9,4254918,vowelstep5.wav,None,1000,15,4294936,311,41.285
G,9,4254918,vowelstep3.wav,None,1000,15,4296937,311,43.285
G,9,4254918,sinestep1.wav,None,1000,15,4298937,309,45.285
G,9,4254918,sinestep7.wav,None,1000,15,4300936,320,47.285
G,9,4254918,sinestep1.wav,None,1000,15,4302936,320,49.285
G,9,4254918,sinestep5.wav,None,1000,15,4304936,320,51.285
G,9,4254918,vowelstep1.wav,None,1000,15,4306936,327,53.285
G,9,4254918,silence.wav,None,1000,15,4308936,330,55.285
G,9,4254918,sinestep5.wav,None,1000,15,4310936,331,57.285
G,9,4254918,vowelstep1.wav,None,1000,15,4312936,309,59.285
G,9,4254918,vowelstep3.wav,None,1000,15,4314937,317,61.285
G,9,4254918,sinestep3.wav,None,1000,15,4316937,319,63.285
G,9,4254918,sinestep1.wav,None,1000,15,4318937,318,65.285
G,9,4254918,vowelstep5.wav,None,1000,15,4320937,329,67.285
G,9,4254918,vowelstep3.wav,None,1000,15,4322937,306,69.285
G,9,4254918,vowelstep5.wav,None,1000,15,4324937,309,71.285
G,9,4254918,vowelstep7.wav,None,1000,15,4326936,339,73.285
G,9,4254918,vowelstep5.wav,None,1000,15,4328936,310,75.285
G,9,4254918,vowelstep5.wav,None,1000,15,4330936,319,77.285
G,9,4254918,sinestep3.wav,2,343,15,4332937,318,79.285
G,9,4254918,sinestep3_catch.wav,2,110,15,4334937,985,81.285
G,9,4254918,sinestep5_catch.wav,2,202,15,4336937,1218,83.285
G,9,4254918,sinestep7.wav,None,1000,15,4338937,1122,85.285
G,9,4254918,sinestep7_catch.wav,2,262,15,4340937,328,87.285
G,9,4254918,sinestep7.wav,None,1000,15,4342937,1055,89.285
G,9,4254918,vowelstep1.wav,None,1000,15,4344937,319,91.285
G,9,4254918,vowelstep7.wav,None,1000,15,4346937,316,93.285
G,9,4254918,vowelstep3.wav,None,1000,15,4348921,327,95.285
G,9,4254918,sinestep3.wav,None,1000,15,4350937,328,97.285
G,9,4254918,sinestep1.wav,None,1000,15,4352937,328,99.285
G,9,4254918,sinestep1.wav,None,1000,15,4354937,325,101.285
G,9,4254918,sinestep5.wav,None,1000,15,4356937,336,103.285
G,9,4254918,vowelstep7.wav,None,1000,15,4358937,317,105.285
G,9,4254918,silence.wav,None,1000,15,4360937,317,107.285
G,9,4254918,sinestep3.wav,None,1000,15,4362937,316,109.285
G,9,4254918,vowelstep1.wav,None,1000,15,4364937,327,111.285
G,9,4254918,sinestep3.wav,None,1000,15,4366921,326,113.285
G,9,4254918,sinestep3.wav,None,1000,15,4368938,325,115.285
G,9,4254918,sinestep7.wav,None,1000,15,4370938,302,117.285
G,9,4254918,silence.wav,None,1000,15,4372938,314,119.285
G,9,4254918,vowelstep5.wav,None,1000,15,4374937,315,121.285
G,9,4254918,sinestep1_catch.wav,2,647,15,4376921,315,123.285
G,9,4254918,silence.wav,None,1000,15,4378937,676,125.285
G,9,4254918,sinestep5.wav,None,1000,15,4380937,319,127.285
G,9,4254918,sinestep7.wav,None,1000,15,4382937,322,129.285
G,9,4254918,sinestep3.wav,None,1000,15,4384921,323,131.285
G,9,4254918,sinestep3.wav,None,1000,15,4386938,327,133.285
G,9,4254918,vowelstep5.wav,None,1000,15,4388938,310,135.285
G,9,4254918,sinestep3.wav,None,1000,15,4390938,312,137.285
G,9,4254918,sinestep3_catch.wav,2,203,15,4392921,313,139.285
G,9,4254918,vowelstep1.wav,None,1000,15,4394921,1140,141.285
G,9,4254918,vowelstep1.wav,None,1000,15,4396921,333,143.285
G,9,4254918,sinestep5.wav,None,1000,15,4398937,334,145.285
G,9,4254918,silence.wav,None,1000,15,4400937,303,147.285
G,9,4254918,sinestep3.wav,None,1000,15,4402922,309,149.285
G,9,4254918,silence.wav,None,1000,15,4404922,342,151.285
G,9,4254918,vowelstep3.wav,None,1000,15,4406938,342,153.285
G,9,4254918,sinestep5.wav,None,1000,15,4408921,321,155.285
G,9,4254918,vowelstep7.wav,None,1000,15,4410921,353,157.285
G,9,4254918,silence.wav,None,1000,15,4412921,328,159.285
G,9,4254918,sinestep5_catch.wav,2,266,15,4414921,332,161.285
G,9,4254918,vowelstep5.wav,None,1000,15,4416938,1014,163.285
G,9,4254918,silence.wav,None,1000,15,4418922,309,165.285
G,9,4254918,vowelstep7.wav,None,1000,15,4420922,313,167.285
G,9,4254918,vowelstep1.wav,None,1000,15,4422922,313,169.285
G,9,4254918,vowelstep1.wav,None,1000,15,4424922,324,171.285
G,9,4254918,vowelstep1.wav,None,1000,15,4426922,324,173.285
G,9,4254918,sinestep5.wav,None,1000,15,4428922,336,175.285
G,9,4254918,vowelstep3.wav,None,1000,15,4430921,334,177.285
G,9,4254918,sinestep1.wav,None,1000,15,4432921,334,179.285
G,9,4254918,vowelstep1.wav,None,1000,15,4434938,330,181.285
G,9,4254918,sinestep1.wav,None,1000,15,4436922,323,183.285
G,9,4254918,sinestep7.wav,None,1000,15,4438922,324,185.285
G,9,4254918,sinestep7.wav,None,1000,15,4440922,322,187.285
G,9,4254918,sinestep3.wav,None,1000,15,4442922,318,189.285
G,9,4254918,sinestep5.wav,None,1000,15,4444922,331,191.285
G,9,4254918,silence.wav,None,1000,15,4446922,329,193.285
G,9,4254918,sinestep7_catch.wav,2,191,15,4448922,342,195.285
G,9,4254918,vowelstep7_catch.wav,2,784,15,4450922,1150,197.285
G,9,4254918,sinestep7.wav,None,1000,15,4452922,537,199.285
G,9,4254918,silence.wav,None,1000,15,4454922,320,201.285
G,9,4254918,sinestep7.wav,None,1000,15,4456922,316,203.285
G,9,4254918,sinestep3.wav,None,1000,15,4458922,329,205.285
G,9,4254918,vowelstep7.wav,None,1000,15,4460922,328,207.285
G,9,4254918,sinestep1.wav,None,1000,15,4462922,334,209.285
G,9,4254918,silence.wav,None,1000,15,4464922,312,211.285
G,9,4254918,silence.wav,2,823,15,4466922,318,213.285
G,9,4254918,vowelstep7.wav,None,1000,15,4468922,499,215.285
G,9,4254918,vowelstep5.wav,None,1000,15,4470922,333,217.285
G,9,4254918,sinestep7.wav,None,1000,15,4472923,331,219.285
G,9,4254918,vowelstep5.wav,None,1000,15,4474923,330,221.285
G,9,4254918,vowelstep5_catch.wav,2,443,15,4476923,332,223.285
G,9,4254918,vowelstep7.wav,None,1000,15,4478922,897,225.285
G,9,4254918,silence.wav,None,1000,15,4480922,318,227.285
G,9,4254918,silence.wav,None,1000,15,4482922,341,229.285
G,9,4254918,sinestep1.wav,None,1000,15,4484922,320,231.285
G,9,4254918,silence.wav,None,1000,15,4486922,331,233.285
G,9,4254918,vowelstep7.wav,None,1000,15,4488923,325,235.285
G,9,4254918,vowelstep5.wav,None,1000,15,4490923,327,237.285
G,9,4254918,vowelstep3.wav,None,1000,15,4492923,339,239.285
G,9,4254918,vowelstep3_catch.wav,2,474,15,4494923,319,241.285
G,9,4254918,sinestep1.wav,None,1000,15,4496923,867,243.285
G,9,4254918,silence.wav,None,1000,15,4498923,340,245.285
G,9,4254918,sinestep7.wav,None,1000,15,4500923,330,247.285
G,9,4254918,sinestep1.wav,None,1000,15,4502922,331,249.285
G,9,4254918,sinestep3.wav,None,1000,15,4504922,329,251.285
G,9,4254918,vowelstep3.wav,None,1000,15,4506923,336,253.285
G,9,4254918,vowelstep1_catch.wav,2,153,15,4508923,339,255.285
G,9,4254918,sinestep7.wav,None,1000,15,4510923,1184,257.285
G,9,4254918,silence.wav,None,1000,15,4512923,350,259.285
G,9,4254918,sinestep5.wav,None,1000,15,4514923,328,261.285
G,9,4254918,sinestep5.wav,None,1000,15,4516923,329,263.285
G,9,4254918,vowelstep5.wav,None,1000,15,4518923,329,265.285
G,9,4254918,sinestep5.wav,None,1000,15,4520923,340,267.285
G,9,4254918,sinestep7.wav,None,1000,15,4522923,340,269.285
G,9,4254918,silence.wav,None,1000,15,4524924,342,271.285
G,9,4254918,vowelstep7_catch.wav,2,273,15,4526924,352,273.285
G,9,4254918,vowelstep5.wav,None,1000,15,4528923,1058,275.285
G,9,4254918,silence.wav,None,1000,15,4530923,332,277.285
G,9,4254918,sinestep3.wav,None,1000,15,4532923,329,279.285
G,9,4254918,vowelstep5.wav,None,1000,15,4534923,331,281.285
G,9,4254918,silence.wav,None,1000,15,4536923,336,283.285
G,9,4254918,vowelstep1.wav,None,1000,15,4538923,343,285.285
G,9,4254918,sinestep1.wav,None,1000,15,4540924,350,287.285
G,9,4254918,vowelstep3.wav,None,1000,15,4542924,330,289.285
G,9,4254918,vowelstep7.wav,None,1000,15,4544924,331,291.285
G,9,4254918,vowelstep7.wav,None,1000,15,4546924,327,293.285
G,9,4254918,sinestep1.wav,None,1000,15,4548924,330,295.285
G,9,4254918,vowelstep5.wav,None,1000,15,4550924,339,297.285
G,9,4254918,silence.wav,None,1000,15,4552923,336,299.285
G,9,4254918,sinestep1.wav,None,1000,15,4554923,341,301.285
G,9,4254918,vowelstep7.wav,None,1000,15,4556923,318,303.285
G,9,4254918,vowelstep5_catch.wav,2,241,15,4558924,329,305.285
G,9,4254918,vowelstep3.wav,None,1000,15,4560924,1085,307.285
G,9,4254918,vowelstep3_catch.wav,2,870,15,4562924,337,309.285
G,9,4254918,sinestep7.wav,None,1000,15,4564924,466,311.285
G,9,4254918,sinestep5.wav,None,1000,15,4566924,338,313.285
G,9,4254918,vowelstep1.wav,2,329,15,4568924,338,315.285
G,9,4254918,vowelstep3.wav,None,1000,15,4570924,1020,317.285
G,9,4254918,vowelstep1.wav,None,1000,15,4572924,327,319.285