block,count_main_sequence,first_trial_timestamp,fname,response_catch_response,response_time_catch_response,subject_nr,time_stimulus,time_to_pad,timing
P,NA,198619,vowelstep1_catch.wav,1,925,9,198639,0,
P,NA,198619,sinestep7_catch.wav,None,1000,9,200623,512,
P,NA,198619,vowelstep5_catch.wav,None,1000,9,202622,441,
P,NA,198619,sinestep7.wav,None,1000,9,204622,450,
P,NA,198619,sinestep7.wav,None,1000,9,206622,450,
P,NA,198619,sinestep3.wav,None,1000,9,208622,450,
P,NA,198619,sinestep1.wav,None,1000,9,210622,460,
P,NA,198619,vowelstep7.wav,None,1000,9,212622,440,
P,NA,198619,vowelstep3.wav,None,1000,9,214623,441,
P,NA,198619,silence.wav,None,1000,9,216623,438,
P,NA,198619,sinestep1.wav,None,1000,9,218623,440,
P,NA,198619,vowelstep1.wav,None,1000,9,220623,448,
P,NA,198619,sinestep5.wav,None,1000,9,222623,450,
P,NA,198619,sinestep1.wav,None,1000,9,224623,459,
P,NA,198619,sinestep1.wav,None,1000,9,226622,428,
P,NA,198619,vowelstep1.wav,None,1000,9,228622,438,
P,NA,198619,silence.wav,None,1000,9,230622,440,
P,NA,198619,silence.wav,None,1000,9,232623,449,
P,NA,198619,silence.wav,None,1000,9,234623,448,
P,NA,198619,sinestep3_catch.wav,1,276,9,236623,449,
P,NA,198619,vowelstep7.wav,None,1000,9,238623,1170,
P,NA,198619,silence.wav,None,1000,9,240623,430,
P,NA,198619,vowelstep7.wav,None,1000,9,242623,437,
P,NA,198619,vowelstep3.wav,None,1000,9,244623,438,
P,NA,198619,silence.wav,None,1000,9,246623,438,
P,NA,198619,vowelstep1.wav,None,1000,9,248624,448,
P,NA,198619,sinestep3.wav,None,1000,9,250623,448,
P,NA,198619,vowelstep1.wav,None,1000,9,252623,457,
P,NA,198619,silence.wav,None,1000,9,254623,458,
P,NA,198619,sinestep7.wav,None,1000,9,256623,457,
P,NA,198619,sinestep5_catch.wav,1,212,9,258623,456,
P,NA,198619,silence.wav,None,1000,9,260623,1233,
P,NA,198619,sinestep7.wav,None,1000,9,262623,447,
P,NA,198619,sinestep5.wav,None,1000,9,264623,448,
P,NA,198619,sinestep3.wav,None,1000,9,266624,447,
P,NA,198619,sinestep1_catch.wav,1,405,9,268624,456,
P,NA,198619,vowelstep3_catch.wav,1,541,9,270624,1030,
P,NA,198619,vowelstep5_catch.wav,1,406,9,272624,896,
P,NA,198619,vowelstep7.wav,None,1000,9,274624,1059,
P,NA,198619,silence.wav,None,1000,9,276623,446,
P,NA,198619,vowelstep7_catch.wav,1,496,9,278623,444,
P,NA,198619,vowelstep3.wav,None,1000,9,280623,947,
P,NA,198619,silence.wav,None,1000,9,282623,455,
P,NA,198619,sinestep7_catch.wav,1,657,9,284624,456,
P,NA,198619,sinestep7.wav,None,1000,9,286624,797,
P,NA,198619,vowelstep5.wav,None,1000,9,288624,435,
P,NA,198619,vowelstep3.wav,None,1000,9,290624,445,
P,NA,198619,sinestep5.wav,None,1000,9,292624,442,
P,NA,198619,sinestep5_catch.wav,1,413,9,294624,444,
P,NA,198619,sinestep3.wav,None,1000,9,296624,1041,
P,NA,198619,silence.wav,None,1000,9,298623,455,
P,NA,198619,vowelstep7.wav,None,1000,9,300623,455,
P,NA,198619,sinestep3_catch.wav,1,787,9,302624,462,
P,NA,198619,vowelstep5.wav,None,1000,9,304624,656,
P,NA,198619,silence.wav,None,1000,9,306624,444,
P,NA,198619,sinestep1.wav,None,1000,9,308624,444,
P,NA,198619,vowelstep1.wav,None,1000,9,310624,444,
P,NA,198619,silence.wav,None,1000,9,312624,455,
P,NA,198619,silence.wav,None,1000,9,314624,454,
P,NA,198619,silence.wav,None,1000,9,316624,434,
P,NA,198619,sinestep1_catch.wav,1,328,9,318625,440,
P,NA,198619,sinestep1.wav,None,1000,9,320625,1112,
P,NA,198619,silence.wav,None,1000,9,322625,451,
P,NA,198619,vowelstep1_catch.wav,1,446,9,324624,451,
P,NA,198619,vowelstep5.wav,None,1000,9,326624,1001,
P,NA,198619,sinestep5.wav,None,1000,9,328624,451,
P,NA,198619,vowelstep3.wav,None,1000,9,330624,440,
P,NA,198619,silence.wav,None,1000,9,332624,439,
P,NA,198619,silence.wav,None,1000,9,334624,441,
P,NA,198619,sinestep7.wav,None,1000,9,336625,442,
P,NA,198619,vowelstep5.wav,None,1000,9,338625,451,
P,NA,198619,silence.wav,None,1000,9,340625,450,
P,NA,198619,vowelstep3_catch.wav,1,312,9,342625,450,
P,NA,198619,silence.wav,None,1000,9,344625,1146,
P,NA,198619,vowelstep5.wav,None,1000,9,346625,440,
P,NA,198619,vowelstep5_catch.wav,1,291,9,348624,440,
P,NA,198619,vowelstep7_catch.wav,1,663,9,350624,1149,
P,NA,198619,sinestep3.wav,None,1000,9,352624,785,
P,NA,198619,vowelstep5.wav,None,1000,9,354625,450,
P,NA,198619,vowelstep3.wav,None,1000,9,356625,449,
P,NA,198619,silence.wav,None,1000,9,358625,429,
P,NA,198619,sinestep3.wav,None,1000,9,360625,439,
P,NA,198619,silence.wav,None,1000,9,362625,439,
P,NA,198619,sinestep7_catch.wav,None,1000,9,364625,439,
P,NA,198619,sinestep5_catch.wav,1,639,9,366625,449,
P,NA,198619,sinestep5.wav,None,1000,9,368625,808,
P,NA,198619,sinestep5.wav,None,1000,9,370626,449,
P,NA,198619,vowelstep7.wav,None,1000,9,372625,456,
P,NA,198619,sinestep3_catch.wav,1,699,9,374625,436,
P,NA,198619,vowelstep1.wav,None,1000,9,376625,738,
I,0,803470,vowelstep7.wav,None,1000,9,803482,0,1.285
I,0,803470,sinestep1_catch.wav,1,372,9,805482,328,3.285
I,0,803470,sinestep3.wav,None,1000,9,807482,956,5.285
I,0,803470,silence.wav,None,1000,9,809482,331,7.285
I,0,803470,vowelstep7.wav,None,1000,9,811482,333,9.285
I,0,803470,sinestep3_catch.wav,1,397,9,813482,341,11.285
I,0,803470,vowelstep3.wav,None,1000,9,815482,942,13.285
I,0,803470,vowelstep3.wav,None,1000,9,817482,352,15.285
I,0,803470,silence.wav,None,1000,9,819482,333,17.285
I,0,803470,vowelstep1.wav,None,1000,9,821482,328,19.285
I,0,803470,vowelstep5.wav,None,1000,9,823482,332,21.285
I,0,803470,vowelstep7.wav,None,1000,9,825483,341,23.285
I,0,803470,sinestep1.wav,None,1000,9,827483,341,25.285
I,0,803470,vowelstep1.wav,None,1000,9,829483,342,27.285
I,0,803470,sinestep5_catch.wav,1,325,9,831483,351,29.285
I,0,803470,sinestep5.wav,None,1000,9,833483,1004,31.285
I,0,803470,vowelstep1.wav,None,1000,9,835482,331,33.285
I,0,803470,sinestep7.wav,None,1000,9,837482,333,35.285
I,0,803470,vowelstep3.wav,None,1000,9,839482,332,37.285
I,0,803470,vowelstep1.wav,None,1000,9,841482,339,39.285
I,0,803470,vowelstep1.wav,None,1000,9,843483,340,41.285
I,0,803470,sinestep3.wav,None,1000,9,845483,350,43.285
I,0,803470,sinestep5.wav,None,1000,9,847483,350,45.285
I,0,803470,sinestep5.wav,None,1000,9,849483,332,47.285
I,0,803470,vowelstep3.wav,None,1000,9,851483,330,49.285
I,0,803470,silence.wav,None,1000,9,853483,330,51.285
I,0,803470,sinestep7_catch.wav,1,322,9,855483,338,53.285
I,0,803470,silence.wav,None,1000,9,857483,1014,55.285
I,0,803470,sinestep1.wav,None,1000,9,859482,339,57.285
I,0,803470,vowelstep1.wav,None,1000,9,861483,321,59.285
I,0,803470,sinestep1.wav,None,1000,9,863483,330,61.285
I,0,803470,sinestep1.wav,None,1000,9,865483,330,63.285
I,0,803470,vowelstep7.wav,None,1000,9,867483,329,65.285
I,0,803470,sinestep5.wav,None,1000,9,869483,341,67.285
I,0,803470,sinestep5_catch.wav,1,217,9,871483,338,69.285
I,0,803470,vowelstep7.wav,None,1000,9,873483,1114,71.285
I,0,803470,vowelstep5.wav,None,1000,9,875483,351,73.285
I,0,803470,sinestep3.wav,None,1000,9,877483,326,75.285
I,0,803470,vowelstep1.wav,None,1000,9,879484,327,77.285
I,0,803470,sinestep3.wav,None,1000,9,881484,329,79.285
I,0,803470,sinestep5.wav,None,1000,9,883483,339,81.285
I,0,803470,sinestep5.wav,None,1000,9,885483,339,83.285
I,0,803470,vowelstep5.wav,None,1000,9,887483,339,85.285
I,0,803470,vowelstep7.wav,None,1000,9,889483,318,87.285
I,0,803470,sinestep3.wav,None,1000,9,891483,328,89.285
I,0,803470,vowelstep3.wav,None,1000,9,893483,327,91.285
I,0,803470,sinestep3.wav,None,1000,9,895484,328,93.285
I,0,803470,vowelstep5.wav,None,1000,9,897484,337,95.285
I,0,803470,sinestep7.wav,None,1000,9,899484,333,97.285
I,0,803470,sinestep3_catch.wav,1,210,9,901484,334,99.285
I,0,803470,sinestep1_catch.wav,1,204,9,903484,1104,101.285
I,0,803470,vowelstep3.wav,None,1000,9,905484,1123,103.285
I,0,803470,vowelstep3.wav,None,1000,9,907483,327,105.285
I,0,803470,vowelstep5.wav,None,1000,9,909483,326,107.285
I,0,803470,sinestep5.wav,None,1000,9,911483,327,109.285
I,0,803470,vowelstep5.wav,None,1000,9,913484,336,111.285
I,0,803470,vowelstep5.wav,None,1000,9,915484,337,113.285
I,0,803470,vowelstep1.wav,None,1000,9,917484,346,115.285
I,0,803470,vowelstep1_catch.wav,1,335,9,919484,326,117.285
I,0,803470,sinestep7.wav,None,1000,9,921484,989,119.285
I,0,803470,vowelstep3.wav,None,1000,9,923484,324,121.285
I,0,803470,sinestep7.wav,None,1000,9,925484,336,123.285
I,0,803470,sinestep7.wav,None,1000,9,927484,337,125.285
I,0,803470,vowelstep7.wav,None,1000,9,929484,334,127.285
I,0,803470,vowelstep3.wav,None,1000,9,931484,346,129.285
I,0,803470,sinestep5.wav,None,1000,9,933484,325,131.285
I,0,803470,sinestep5.wav,None,1000,9,935484,325,133.285
I,0,803470,vowelstep3.wav,None,1000,9,937484,325,135.285
I,0,803470,sinestep5.wav,None,1000,9,939484,325,137.285
I,0,803470,sinestep1.wav,None,1000,9,941484,334,139.285
I,0,803470,vowelstep7.wav,None,1000,9,943484,335,141.285
I,0,803470,silence.wav,None,1000,9,945484,334,143.285
I,0,803470,vowelstep7.wav,None,1000,9,947484,344,145.285
I,0,803470,silence.wav,None,1000,9,949485,323,147.285
I,0,803470,sinestep1.wav,None,1000,9,951485,323,149.285
I,0,803470,vowelstep1.wav,None,1000,9,953485,325,151.285
I,0,803470,vowelstep3.wav,None,1000,9,955484,334,153.285
I,0,803470,silence.wav,None,1000,9,957484,335,155.285
I,0,803470,silence.wav,None,1000,9,959484,344,157.285
I,0,803470,vowelstep1.wav,None,1000,9,961484,343,159.285
I,0,803470,sinestep1.wav,None,1000,9,963484,345,161.285
I,0,803470,vowelstep3_catch.wav,1,265,9,965485,340,163.285
I,0,803470,sinestep1.wav,None,1000,9,967485,1053,165.285
I,0,803470,vowelstep5.wav,None,1000,9,969485,333,167.285
I,0,803470,vowelstep5_catch.wav,1,832,9,971485,332,169.285
I,0,803470,sinestep1.wav,None,1000,9,973485,497,171.285
I,0,803470,silence.wav,None,1000,9,975485,344,173.285
I,0,803470,vowelstep5.wav,None,1000,9,977485,343,175.285
I,0,803470,sinestep3.wav,1,267,9,979484,344,177.285
I,0,803470,sinestep3.wav,None,1000,9,981484,1055,179.285
I,0,803470,silence.wav,None,1000,9,983485,332,181.285
I,0,803470,silence.wav,None,1000,9,985485,330,183.285
I,0,803470,vowelstep3.wav,None,1000,9,987485,341,185.285
I,0,803470,vowelstep7.wav,None,1000,9,989485,343,187.285
I,0,803470,vowelstep7.wav,None,1000,9,991485,342,189.285
I,0,803470,silence.wav,None,1000,9,993485,342,191.285
I,0,803470,sinestep3.wav,None,1000,9,995485,332,193.285
I,0,803470,sinestep3.wav,None,1000,9,997485,332,195.285
I,0,803470,vowelstep5.wav,None,1000,9,999485,333,197.285
I,0,803470,vowelstep1.wav,None,1000,9,1001486,331,199.285
I,0,803470,vowelstep1.wav,None,1000,9,1003485,341,201.285
I,0,803470,sinestep5.wav,None,1000,9,1005485,342,203.285
I,0,803470,silence.wav,None,1000,9,1007485,342,205.285
I,0,803470,sinestep5.wav,None,1000,9,1009485,347,207.285
I,0,803470,sinestep7.wav,None,1000,9,1011485,332,209.285
I,0,803470,sinestep1.wav,None,1000,9,1013485,330,211.285
I,0,803470,sinestep5.wav,None,1000,9,1015485,331,213.285
I,0,803470,vowelstep5.wav,None,1000,9,1017486,340,215.285
I,0,803470,sinestep7.wav,None,1000,9,1019486,340,217.285
I,0,803470,sinestep5.wav,None,1000,9,1021486,339,219.285
I,0,803470,sinestep3.wav,None,1000,9,1023486,321,221.285
I,0,803470,silence.wav,None,1000,9,1025486,329,223.285
I,0,803470,vowelstep7_catch.wav,1,292,9,1027485,330,225.285
I,0,803470,sinestep7.wav,None,1000,9,1029485,1037,227.285
I,0,803470,sinestep7.wav,None,1000,9,1031485,339,229.285
I,0,803470,sinestep3.wav,None,1000,9,1033485,340,231.285
I,0,803470,vowelstep3.wav,None,1000,9,1035486,336,233.285
I,0,803470,silence.wav,None,1000,9,1037486,338,235.285
I,0,803470,sinestep3.wav,None,1000,9,1039486,325,237.285
I,0,803470,sinestep5.wav,None,1000,9,1041486,329,239.285
I,0,803470,silence.wav,None,1000,9,1043486,330,241.285
I,0,803470,vowelstep3.wav,None,1000,9,1045486,329,243.285
I,0,803470,sinestep1.wav,None,1000,9,1047486,338,245.285
I,0,803470,sinestep1.wav,None,1000,9,1049486,338,247.285
I,0,803470,sinestep7.wav,None,1000,9,1051486,347,249.285
I,0,803470,vowelstep7.wav,None,1000,9,1053486,319,251.285
I,0,803470,vowelstep5.wav,None,1000,9,1055486,328,253.285
I,0,803470,silence.wav,None,1000,9,1057486,326,255.285
I,0,803470,sinestep3.wav,None,1000,9,1059486,335,257.285
I,0,803470,vowelstep1.wav,None,1000,9,1061486,339,259.285
I,0,803470,vowelstep1.wav,None,1000,9,1063486,338,261.285
I,0,803470,silence.wav,None,1000,9,1065486,348,263.285
I,0,803470,vowelstep3.wav,None,1000,9,1067486,327,265.285
I,0,803470,silence.wav,None,1000,9,1069486,327,267.285
I,0,803470,silence.wav,None,1000,9,1071487,327,269.285
I,0,803470,sinestep7.wav,None,1000,9,1073487,336,271.285
I,0,803470,sinestep7.wav,None,1000,9,1075487,335,273.285
I,0,803470,vowelstep5.wav,None,1000,9,1077486,337,275.285
I,0,803470,silence.wav,None,1000,9,1079486,345,277.285
I,0,803470,silence.wav,None,1000,9,1081486,346,279.285
I,0,803470,sinestep1.wav,None,1000,9,1083486,327,281.285
I,0,803470,silence.wav,None,1000,9,1085486,328,283.285
I,0,803470,vowelstep7.wav,None,1000,9,1087487,326,285.285
I,0,803470,vowelstep5_catch.wav,1,360,9,1089487,335,287.285
I,0,803470,sinestep7.wav,None,1000,9,1091487,973,289.285
I,0,803470,sinestep1.wav,None,1000,9,1093487,336,291.285
I,0,803470,vowelstep3_catch.wav,None,1000,9,1095487,288,293.285
I,0,803470,sinestep1.wav,None,1000,9,1097487,325,295.285
I,0,803470,vowelstep7.wav,None,1000,9,1099487,326,297.285
I,0,803470,sinestep3.wav,None,1000,9,1101486,326,299.285
I,0,803470,vowelstep5.wav,None,1000,9,1103486,334,301.285
I,0,803470,vowelstep1_catch.wav,1,326,9,1105487,336,303.285
I,0,803470,vowelstep7.wav,None,1000,9,1107487,1004,305.285
I,0,803470,vowelstep5.wav,None,1000,9,1109487,344,307.285
I,0,803470,sinestep1_catch.wav,1,553,9,1111487,325,309.285
I,0,803470,silence.wav,None,1000,9,1113487,769,311.285
I,0,803470,sinestep7.wav,None,1000,9,1115487,321,313.285
I,0,803470,silence.wav,None,1000,9,1117487,335,315.285
I,0,803470,vowelstep1.wav,None,1000,9,1119487,334,317.285
I,0,803470,sinestep7.wav,None,1000,9,1121487,334,319.285
J,1,1182256,sinestep5_catch.wav,1,974,9,1182271,0,1.285
J,1,1182256,sinestep5.wav,None,1000,9,1184271,355,3.285
J,1,1182256,sinestep3.wav,None,1000,9,1186271,346,5.285
J,1,1182256,sinestep1.wav,None,1000,9,1188271,315,7.285
J,1,1182256,sinestep7.wav,None,1000,9,1190271,327,9.285
J,1,1182256,vowelstep3.wav,None,1000,9,1192271,326,11.285
J,1,1182256,sinestep1.wav,None,1000,9,1194272,334,13.285
J,1,1182256,vowelstep5.wav,None,1000,9,1196272,334,15.285
J,1,1182256,vowelstep3.wav,None,1000,9,1198272,335,17.285
J,1,1182256,vowelstep1.wav,None,1000,9,1200272,346,19.285
J,1,1182256,vowelstep1.wav,None,1000,9,1202272,324,21.285
J,1,1182256,sinestep3.wav,None,1000,9,1204272,326,23.285
J,1,1182256,silence.wav,None,1000,9,1206271,324,25.285
J,1,1182256,vowelstep7.wav,None,1000,9,1208271,336,27.285
J,1,1182256,sinestep3.wav,None,1000,9,1210272,334,29.285
J,1,1182256,sinestep7.wav,None,1000,9,1212272,335,31.285
J,1,1182256,silence.wav,None,1000,9,1214272,345,33.285
J,1,1182256,vowelstep5.wav,None,1000,9,1216272,316,35.285
J,1,1182256,sinestep1.wav,None,1000,9,1218272,324,37.285
J,1,1182256,sinestep1_catch.wav,1,272,9,1220272,322,39.285
J,1,1182256,sinestep7.wav,None,1000,9,1222272,1063,41.285
J,1,1182256,vowelstep7.wav,None,1000,9,1224272,334,43.285
J,1,1182256,sinestep3_catch.wav,1,271,9,1226272,332,45.285
J,1,1182256,vowelstep3.wav,None,1000,9,1228273,1059,47.285
J,1,1182256,vowelstep7.wav,None,1000,9,1230272,313,49.285
J,1,1182256,sinestep1.wav,None,1000,9,1232272,323,51.285
J,1,1182256,vowelstep3.wav,None,1000,9,1234272,323,53.285
J,1,1182256,vowelstep1.wav,None,1000,9,1236272,323,55.285
J,1,1182256,sinestep5.wav,None,1000,9,1238272,333,57.285
J,1,1182256,sinestep5_catch.wav,1,401,9,1240272,332,59.285
J,1,1182256,sinestep5.wav,None,1000,9,1242272,928,61.285
J,1,1182256,vowelstep7.wav,None,1000,9,1244272,342,63.285
J,1,1182256,sinestep7.wav,None,1000,9,1246273,323,65.285
J,1,1182256,vowelstep1.wav,None,1000,9,1248273,322,67.285
J,1,1182256,sinestep7_catch.wav,1,192,9,1250273,322,69.285
J,1,1182256,silence.wav,None,1000,9,1252273,1139,71.285
J,1,1182256,vowelstep5.wav,None,1000,9,1254273,332,73.285
J,1,1182256,sinestep5.wav,None,1000,9,1256272,332,75.285
J,1,1182256,sinestep5.wav,None,1000,9,1258272,304,77.285
J,1,1182256,vowelstep3.wav,None,1000,9,1260272,320,79.285
J,1,1182256,vowelstep5.wav,None,1000,9,1262273,319,81.285
J,1,1182256,sinestep3.wav,None,1000,9,1264273,331,83.285
J,1,1182256,silence.wav,None,1000,9,1266273,331,85.285
J,1,1182256,vowelstep3.wav,None,1000,9,1268273,330,87.285
J,1,1182256,vowelstep7.wav,None,1000,9,1270273,332,89.285
J,1,1182256,silence.wav,None,1000,9,1272273,341,91.285
J,1,1182256,sinestep3.wav,None,1000,9,1274273,341,93.285
J,1,1182256,silence.wav,None,1000,9,1276273,341,95.285
J,1,1182256,sinestep1.wav,None,1000,9,1278273,305,97.285
J,1,1182256,sinestep5_catch.wav,1,292,9,1280273,325,99.285
J,1,1182256,sinestep7.wav,None,1000,9,1282273,1007,101.285
J,1,1182256,sinestep5.wav,None,1000,9,1284273,333,103.285
J,1,1182256,sinestep5.wav,None,1000,9,1286273,334,105.285
J,1,1182256,sinestep3.wav,None,1000,9,1288273,343,107.285
J,1,1182256,sinestep3_catch.wav,1,259,9,1290273,316,109.285
J,1,1182256,sinestep3.wav,None,1000,9,1292273,1064,111.285
J,1,1182256,silence.wav,None,1000,9,1294273,324,113.285
J,1,1182256,sinestep1.wav,None,1000,9,1296273,334,115.285
J,1,1182256,silence.wav,None,1000,9,1298274,334,117.285
J,1,1182256,vowelstep3.wav,None,1000,9,1300274,333,119.285
J,1,1182256,vowelstep5.wav,None,1000,9,1302274,331,121.285
J,1,1182256,vowelstep7.wav,None,1000,9,1304273,319,123.285
J,1,1182256,silence.wav,None,1000,9,1306273,321,125.285
J,1,1182256,sinestep1.wav,None,1000,9,1308273,324,127.285
J,1,1182256,sinestep3.wav,None,1000,9,1310273,323,129.285
J,1,1182256,sinestep7.wav,None,1000,9,1312273,333,131.285
J,1,1182256,silence.wav,None,1000,9,1314273,332,133.285
J,1,1182256,sinestep1.wav,None,1000,9,1316274,340,135.285
J,1,1182256,vowelstep7.wav,None,1000,9,1318274,311,137.285
J,1,1182256,sinestep5.wav,None,1000,9,1320274,320,139.285
J,1,1182256,vowelstep1.wav,None,1000,9,1322274,323,141.285
J,1,1182256,vowelstep7.wav,None,1000,9,1324274,332,143.285
J,1,1182256,vowelstep3.wav,None,1000,9,1326274,333,145.285
J,1,1182256,vowelstep3.wav,None,1000,9,1328273,333,147.285
J,1,1182256,sinestep7.wav,None,1000,9,1330273,333,149.285
J,1,1182256,vowelstep5.wav,None,1000,9,1332274,312,151.285
J,1,1182256,silence.wav,None,1000,9,1334274,321,153.285
J,1,1182256,sinestep1.wav,None,1000,9,1336274,323,155.285
J,1,1182256,sinestep3.wav,None,1000,9,1338274,323,157.285
J,1,1182256,silence.wav,None,1000,9,1340274,332,159.285
J,1,1182256,sinestep1.wav,None,1000,9,1342274,328,161.285
J,1,1182256,vowelstep7.wav,None,1000,9,1344274,331,163.285
J,1,1182256,vowelstep7.wav,None,1000,9,1346274,342,165.285
J,1,1182256,sinestep1_catch.wav,1,381,9,1348274,322,167.285
J,1,1182256,vowelstep1_catch.wav,1,700,9,1350275,933,169.285
J,1,1182256,vowelstep1.wav,None,1000,9,1352274,620,171.285
J,1,1182256,vowelstep7.wav,None,1000,9,1354274,331,173.285
J,1,1182256,sinestep1.wav,None,1000,9,1356274,329,175.285
J,1,1182256,vowelstep5.wav,None,1000,9,1358274,340,177.285
J,1,1182256,vowelstep5.wav,None,1000,9,1360274,338,179.285
J,1,1182256,sinestep5.wav,None,1000,9,1362274,318,181.285
J,1,1182256,sinestep7.wav,None,1000,9,1364274,321,183.285
J,1,1182256,sinestep7.wav,None,1000,9,1366274,345,185.285
J,1,1182256,sinestep1.wav,None,1000,9,1368275,333,187.285
J,1,1182256,vowelstep1.wav,None,1000,9,1370275,329,189.285
J,1,1182256,silence.wav,None,1000,9,1372275,329,191.285
J,1,1182256,sinestep5.wav,None,1000,9,1374275,341,193.285
J,1,1182256,vowelstep5.wav,None,1000,9,1376274,320,195.285
J,1,1182256,vowelstep1.wav,None,1000,9,1378274,339,197.285
J,1,1182256,vowelstep1.wav,None,1000,9,1380274,318,199.285
J,1,1182256,sinestep3.wav,None,1000,9,1382274,329,201.285
J,1,1182256,sinestep3.wav,None,1000,9,1384274,328,203.285
J,1,1182256,silence.wav,None,1000,9,1386275,329,205.285
J,1,1182256,sinestep5.wav,None,1000,9,1388275,338,207.285
J,1,1182256,vowelstep1.wav,None,1000,9,1390275,338,209.285
J,1,1182256,vowelstep5.wav,None,1000,9,1392275,336,211.285
J,1,1182256,vowelstep3.wav,None,1000,9,1394275,332,213.285
J,1,1182256,vowelstep3.wav,None,1000,9,1396275,329,215.285
J,1,1182256,silence.wav,None,1000,9,1398275,325,217.285
J,1,1182256,sinestep1.wav,None,1000,9,1400274,328,219.285
J,1,1182256,vowelstep3.wav,None,1000,9,1402259,327,221.285
J,1,1182256,sinestep7.wav,None,1000,9,1404275,335,223.285
J,1,1182256,vowelstep7.wav,None,1000,9,1406275,336,225.285
J,1,1182256,silence.wav,None,1000,9,1408275,348,227.285
J,1,1182256,vowelstep5.wav,None,1000,9,1410275,325,229.285
J,1,1182256,silence.wav,None,1000,9,1412275,327,231.285
J,1,1182256,sinestep3.wav,None,1000,9,1414275,328,233.285
J,1,1182256,vowelstep5.wav,None,1000,9,1416275,339,235.285
J,1,1182256,vowelstep3.wav,None,1000,9,1418275,338,237.285
J,1,1182256,vowelstep5.wav,None,1000,9,1420259,338,239.285
J,1,1182256,vowelstep7.wav,None,1000,9,1422276,347,241.285
J,1,1182256,vowelstep1.wav,None,1000,9,1424275,327,243.285
J,1,1182256,sinestep7.wav,1,593,9,1426275,322,245.285
J,1,1182256,sinestep7.wav,None,1000,9,1428275,733,247.285
J,1,1182256,silence.wav,None,1000,9,1430275,324,249.285
J,1,1182256,vowelstep1.wav,None,1000,9,1432259,338,251.285
J,1,1182256,vowelstep3_catch.wav,1,324,9,1434275,336,253.285
J,1,1182256,vowelstep1.wav,None,1000,9,1436275,1011,255.285
J,1,1182256,vowelstep5_catch.wav,1,252,9,1438259,347,257.285
J,1,1182256,silence.wav,None,1000,9,1440276,1093,259.285
J,1,1182256,sinestep5.wav,None,1000,9,1442276,323,261.285
J,1,1182256,vowelstep1.wav,None,1000,9,1444276,322,263.285
J,1,1182256,sinestep5.wav,None,1000,9,1446276,337,265.285
J,1,1182256,vowelstep3.wav,None,1000,9,1448259,335,267.285
J,1,1182256,sinestep5.wav,None,1000,9,1450259,346,269.285
J,1,1182256,sinestep7.wav,None,1000,9,1452275,344,271.285
J,1,1182256,silence.wav,None,1000,9,1454275,325,273.285
J,1,1182256,vowelstep7_catch.wav,1,456,9,1456260,325,275.285
J,1,1182256,sinestep3.wav,None,1000,9,1458259,891,277.285
J,1,1182256,vowelstep5.wav,None,1000,9,1460276,357,279.285
J,1,1182256,silence.wav,None,1000,9,1462276,334,281.285
J,1,1182256,silence.wav,None,1000,9,1464259,334,283.285
J,1,1182256,silence.wav,None,1000,9,1466259,345,285.285
J,1,1182256,vowelstep7.wav,None,1000,9,1468259,343,287.285
J,1,1182256,sinestep3.wav,None,1000,9,1470276,344,289.285
J,1,1182256,vowelstep5_catch.wav,1,472,9,1472260,326,291.285
J,1,1182256,silence.wav,None,1000,9,1474260,875,293.285
J,1,1182256,sinestep7.wav,None,1000,9,1476260,354,295.285
J,1,1182256,vowelstep1.wav,None,1000,9,1478276,342,297.285
J,1,1182256,silence.wav,None,1000,9,1480260,344,299.285
J,1,1182256,sinestep1.wav,None,1000,9,1482259,334,301.285
J,1,1182256,sinestep5.wav,None,1000,9,1484259,343,303.285
J,1,1182256,vowelstep5.wav,None,1000,9,1486259,354,305.285
J,1,1182256,vowelstep3.wav,None,1000,9,1488276,354,307.285
J,1,1182256,sinestep7.wav,None,1000,9,1490260,328,309.285
J,1,1182256,vowelstep7.wav,None,1000,9,1492260,364,311.285
J,1,1182256,vowelstep3_catch.wav,1,471,9,1494260,336,313.285
J,1,1182256,vowelstep1_catch.wav,1,519,9,1496260,868,315.285
J,1,1182256,sinestep3.wav,None,1000,9,1498260,823,317.285
J,1,1182256,sinestep1.wav,None,1000,9,1500260,352,319.285
G,2,1561480,vowelstep3.wav,None,1000,9,1561495,0,1.285
G,2,1561480,vowelstep3.wav,None,1000,9,1563494,342,3.285
G,2,1561480,vowelstep7.wav,None,1000,9,1565494,351,5.285
G,2,1561480,vowelstep3.wav,None,1000,9,1567494,331,7.285
G,2,1561480,sinestep5.wav,None,1000,9,1569494,333,9.285
G,2,1561480,sinestep1_catch.wav,1,539,9,1571494,342,11.285
G,2,1561480,silence.wav,None,1000,9,1573494,800,13.285
G,2,1561480,silence.wav,None,1000,9,1575494,343,15.285
G,2,1561480,vowelstep7.wav,None,1000,9,1577495,341,17.285
G,2,1561480,vowelstep1.wav,None,1000,9,1579495,349,19.285
G,2,1561480,silence.wav,None,1000,9,1581495,328,21.285
G,2,1561480,sinestep1.wav,None,1000,9,1583495,330,23.285
G,2,1561480,vowelstep7.wav,None,1000,9,1585495,327,25.285
G,2,1561480,sinestep5.wav,None,1000,9,1587494,340,27.285
G,2,1561480,sinestep5.wav,None,1000,9,1589494,339,29.285
G,2,1561480,sinestep3.wav,None,1000,9,1591494,342,31.285
G,2,1561480,vowelstep3.wav,None,1000,9,1593494,317,33.285
G,2,1561480,silence.wav,None,1000,9,1595495,331,35.285
G,2,1561480,vowelstep1.wav,None,1000,9,1597495,326,37.285
G,2,1561480,sinestep7.wav,None,1000,9,1599495,331,39.285
G,2,1561480,vowelstep5.wav,None,1000,9,1601495,339,41.285
G,2,1561480,vowelstep3.wav,None,1000,9,1603495,341,43.285
G,2,1561480,sinestep1.wav,None,1000,9,1605495,341,45.285
G,2,1561480,sinestep7.wav,None,1000,9,1607495,340,47.285
G,2,1561480,sinestep1.wav,None,1000,9,1609495,331,49.285
G,2,1561480,sinestep5.wav,None,1000,9,1611494,331,51.285
G,2,1561480,vowelstep1.wav,None,1000,9,1613495,325,53.285
G,2,1561480,silence.wav,None,1000,9,1615495,340,55.285
G,2,1561480,sinestep5.wav,None,1000,9,1617495,338,57.285
G,2,1561480,vowelstep1.wav,None,1000,9,1619495,339,59.285
G,2,1561480,vowelstep3.wav,None,1000,9,1621495,319,61.285
G,2,1561480,sinestep3.wav,None,1000,9,1623495,328,63.285
G,2,1561480,sinestep1.wav,None,1000,9,1625495,328,65.285
G,2,1561480,vowelstep5.wav,None,1000,9,1627495,330,67.285
G,2,1561480,vowelstep3.wav,None,1000,9,1629496,339,69.285
G,2,1561480,vowelstep5.wav,None,1000,9,1631496,337,71.285
G,2,1561480,vowelstep7.wav,None,1000,9,1633496,332,73.285
G,2,1561480,vowelstep5.wav,None,1000,9,1635495,338,75.285
G,2,1561480,vowelstep5.wav,None,1000,9,1637495,329,77.285
G,2,1561480,sinestep3.wav,None,1000,9,1639495,327,79.285
G,2,1561480,sinestep3_catch.wav,1,386,9,1641495,328,81.285
G,2,1561480,sinestep5_catch.wav,None,1000,9,1643495,937,83.285
G,2,1561480,sinestep7.wav,None,1000,9,1645495,337,85.285
G,2,1561480,sinestep7_catch.wav,1,379,9,1647496,338,87.285
G,2,1561480,sinestep7.wav,None,1000,9,1649496,963,89.285
G,2,1561480,vowelstep1.wav,None,1000,9,1651496,327,91.285
G,2,1561480,vowelstep7.wav,None,1000,9,1653496,326,93.285
G,2,1561480,vowelstep3.wav,None,1000,9,1655496,327,95.285
G,2,1561480,sinestep3.wav,None,1000,9,1657496,326,97.285
G,2,1561480,sinestep1.wav,None,1000,9,1659495,338,99.285
G,2,1561480,sinestep1.wav,None,1000,9,1661495,334,101.285
G,2,1561480,sinestep5.wav,None,1000,9,1663495,341,103.285
G,2,1561480,vowelstep7.wav,None,1000,9,1665496,318,105.285
G,2,1561480,silence.wav,None,1000,9,1667496,326,107.285
G,2,1561480,sinestep3.wav,None,1000,9,1669496,325,109.285
G,2,1561480,vowelstep1.wav,None,1000,9,1671496,327,111.285
G,2,1561480,sinestep3.wav,None,1000,9,1673496,336,113.285
G,2,1561480,sinestep3.wav,None,1000,9,1675496,336,115.285
G,2,1561480,sinestep7.wav,None,1000,9,1677496,333,117.285
G,2,1561480,silence.wav,None,1000,9,1679496,346,119.285
G,2,1561480,vowelstep5.wav,None,1000,9,1681496,322,121.285
G,2,1561480,sinestep1_catch.wav,1,357,9,1683496,326,123.285
G,2,1561480,silence.wav,None,1000,9,1685496,964,125.285
G,2,1561480,sinestep5.wav,None,1000,9,1687496,336,127.285
G,2,1561480,sinestep7.wav,None,1000,9,1689496,333,129.285
G,2,1561480,sinestep3.wav,None,1000,9,1691496,336,131.285
G,2,1561480,sinestep3.wav,None,1000,9,1693496,314,133.285
G,2,1561480,vowelstep5.wav,None,1000,9,1695496,319,135.285
G,2,1561480,sinestep3.wav,None,1000,9,1697496,326,137.285
G,2,1561480,sinestep3_catch.wav,1,502,9,1699497,334,139.285
G,2,1561480,vowelstep1.wav,None,1000,9,1701497,824,141.285
G,2,1561480,vowelstep1.wav,None,1000,9,1703497,331,143.285
G,2,1561480,sinestep5.wav,None,1000,9,1705497,332,145.285
G,2,1561480,silence.wav,None,1000,9,1707496,344,147.285
G,2,1561480,sinestep3.wav,None,1000,9,1709496,321,149.285
G,2,1561480,silence.wav,None,1000,9,1711496,324,151.285
G,2,1561480,vowelstep3.wav,None,1000,9,1713496,322,153.285
G,2,1561480,sinestep5.wav,None,1000,9,1715496,333,155.285
G,2,1561480,vowelstep7.wav,None,1000,9,1717497,335,157.285
G,2,1561480,silence.wav,None,1000,9,1719497,333,159.285
G,2,1561480,sinestep5_catch.wav,1,520,9,1721497,343,161.285
G,2,1561480,vowelstep5.wav,None,1000,9,1723497,802,163.285
G,2,1561480,silence.wav,None,1000,9,1725497,320,165.285
G,2,1561480,vowelstep7.wav,None,1000,9,1727497,324,167.285
G,2,1561480,vowelstep1.wav,None,1000,9,1729497,332,169.285
G,2,1561480,vowelstep1.wav,None,1000,9,1731496,334,171.285
G,2,1561480,vowelstep1.wav,None,1000,9,1733496,332,173.285
G,2,1561480,sinestep5.wav,None,1000,9,1735497,343,175.285
G,2,1561480,vowelstep3.wav,None,1000,9,1737497,323,177.285
G,2,1561480,sinestep1.wav,None,1000,9,1739497,322,179.285
G,2,1561480,vowelstep1.wav,None,1000,9,1741497,322,181.285
G,2,1561480,sinestep1.wav,None,1000,9,1743497,328,183.285
G,2,1561480,sinestep7.wav,None,1000,9,1745497,333,185.285
G,2,1561480,sinestep7.wav,None,1000,9,1747497,329,187.285
G,2,1561480,sinestep3.wav,None,1000,9,1749497,332,189.285
G,2,1561480,sinestep5.wav,None,1000,9,1751497,320,191.285
G,2,1561480,silence.wav,None,1000,9,1753498,321,193.285
G,2,1561480,sinestep7_catch.wav,1,354,9,1755497,320,195.285
G,2,1561480,vowelstep7_catch.wav,1,600,9,1757497,964,197.285
G,2,1561480,sinestep7.wav,None,1000,9,1759497,726,199.285
G,2,1561480,silence.wav,None,1000,9,1761497,331,201.285
G,2,1561480,sinestep7.wav,None,1000,9,1763497,340,203.285
G,2,1561480,sinestep3.wav,None,1000,9,1765497,340,205.285
G,2,1561480,vowelstep7.wav,None,1000,9,1767497,339,207.285
G,2,1561480,sinestep1.wav,None,1000,9,1769498,341,209.285
G,2,1561480,silence.wav,None,1000,9,1771498,329,211.285
G,2,1561480,silence.wav,None,1000,9,1773498,330,213.285
G,2,1561480,vowelstep7.wav,None,1000,9,1775498,329,215.285
G,2,1561480,vowelstep5.wav,None,1000,9,1777498,329,217.285
G,2,1561480,sinestep7.wav,None,1000,9,1779498,320,219.285
G,2,1561480,vowelstep5.wav,None,1000,9,1781497,318,221.285
G,2,1561480,vowelstep5_catch.wav,1,321,9,1783497,337,223.285
G,2,1561480,vowelstep7.wav,None,1000,9,1785497,997,225.285
G,2,1561480,silence.wav,None,1000,9,1787498,329,227.285
G,2,1561480,silence.wav,None,1000,9,1789498,325,229.285
G,2,1561480,sinestep1.wav,None,1000,9,1791498,337,231.285
G,2,1561480,silence.wav,None,1000,9,1793498,338,233.285
G,2,1561480,vowelstep7.wav,None,1000,9,1795498,338,235.285
G,2,1561480,vowelstep5.wav,None,1000,9,1797498,337,237.285
G,2,1561480,vowelstep3.wav,None,1000,9,1799498,328,239.285
G,2,1561480,vowelstep3_catch.wav,1,311,9,1801498,328,241.285
G,2,1561480,sinestep1.wav,None,1000,9,1803498,1013,243.285
G,2,1561480,silence.wav,None,1000,9,1805498,329,245.285
G,2,1561480,sinestep7.wav,None,1000,9,1807498,337,247.285
G,2,1561480,sinestep1.wav,None,1000,9,1809498,337,249.285
G,2,1561480,sinestep3.wav,None,1000,9,1811498,337,251.285
G,2,1561480,vowelstep3.wav,None,1000,9,1813498,347,253.285
G,2,1561480,vowelstep1_catch.wav,1,495,9,1815498,329,255.285
G,2,1561480,sinestep7.wav,None,1000,9,1817498,827,257.285
G,2,1561480,silence.wav,None,1000,9,1819498,329,259.285
G,2,1561480,sinestep5.wav,None,1000,9,1821498,332,261.285
G,2,1561480,sinestep5.wav,None,1000,9,1823499,335,263.285
G,2,1561480,vowelstep5.wav,None,1000,9,1825499,331,265.285
G,2,1561480,sinestep5.wav,None,1000,9,1827499,314,267.285
G,2,1561480,sinestep7.wav,None,1000,9,1829498,324,269.285
G,2,1561480,silence.wav,None,1000,9,1831498,326,271.285
G,2,1561480,vowelstep7_catch.wav,1,510,9,1833498,325,273.285
G,2,1561480,vowelstep5.wav,None,1000,9,1835498,820,275.285
G,2,1561480,silence.wav,None,1000,9,1837498,337,277.285
G,2,1561480,sinestep3.wav,None,1000,9,1839499,330,279.285
G,2,1561480,vowelstep5.wav,None,1000,9,1841499,336,281.285
G,2,1561480,silence.wav,None,1000,9,1843499,323,283.285
G,2,1561480,vowelstep1.wav,None,1000,9,1845499,325,285.285
G,2,1561480,sinestep1.wav,None,1000,9,1847499,322,287.285
G,2,1561480,vowelstep3.wav,None,1000,9,1849499,326,289.285
G,2,1561480,vowelstep7.wav,None,1000,9,1851499,336,291.285
G,2,1561480,vowelstep7.wav,None,1000,9,1853498,331,293.285
G,2,1561480,sinestep1.wav,None,1000,9,1855498,344,295.285
G,2,1561480,vowelstep5.wav,None,1000,9,1857499,311,297.285
G,2,1561480,silence.wav,None,1000,9,1859483,321,299.285
G,2,1561480,sinestep1.wav,None,1000,9,1861499,355,301.285
G,2,1561480,vowelstep7.wav,None,1000,9,1863499,332,303.285
G,2,1561480,vowelstep5_catch.wav,1,328,9,1865499,335,305.285
G,2,1561480,vowelstep3.wav,None,1000,9,1867499,1000,307.285
G,2,1561480,vowelstep3_catch.wav,1,708,9,1869499,344,309.285
G,2,1561480,sinestep7.wav,None,1000,9,1871499,616,311.285
G,2,1561480,sinestep5.wav,None,1000,9,1873499,323,313.285
G,2,1561480,vowelstep1.wav,None,1000,9,1875483,325,315.285
G,2,1561480,vowelstep3.wav,None,1000,9,1877483,351,317.285
G,2,1561480,vowelstep1.wav,None,1000,9,1879499,353,319.285
B,3,1943600,vowelstep5.wav,None,1000,9,1943616,0,1.285
B,3,1943600,silence.wav,None,1000,9,1945617,317,3.285
B,3,1943600,sinestep7.wav,None,1000,9,1947617,324,5.285
B,3,1943600,vowelstep1_catch.wav,2,524,9,1949617,329,7.285
B,3,1943600,vowelstep7.wav,None,1000,9,1951617,800,9.285
B,3,1943600,vowelstep3.wav,None,1000,9,1953617,338,11.285
B,3,1943600,vowelstep7.wav,None,1000,9,1955617,337,13.285
B,3,1943600,vowelstep5.wav,None,1000,9,1957617,338,15.285
B,3,1943600,vowelstep7.wav,None,1000,9,1959617,317,17.285
B,3,1943600,vowelstep3.wav,None,1000,9,1961618,329,19.285
B,3,1943600,silence.wav,None,1000,9,1963618,327,21.285
B,3,1943600,silence.wav,None,1000,9,1965618,324,23.285
B,3,1943600,sinestep5.wav,None,1000,9,1967617,339,25.285
B,3,1943600,sinestep1.wav,None,1000,9,1969617,337,27.285
B,3,1943600,vowelstep7.wav,None,1000,9,1971617,338,29.285
B,3,1943600,sinestep5.wav,None,1000,9,1973617,318,31.285
B,3,1943600,vowelstep1.wav,None,1000,9,1975617,328,33.285
B,3,1943600,vowelstep7.wav,None,1000,9,1977617,329,35.285
B,3,1943600,vowelstep3.wav,None,1000,9,1979618,323,37.285
B,3,1943600,sinestep5.wav,None,1000,9,1981618,338,39.285
B,3,1943600,vowelstep1.wav,None,1000,9,1983618,333,41.285
B,3,1943600,sinestep3.wav,None,1000,9,1985618,336,43.285
B,3,1943600,vowelstep5.wav,None,1000,9,1987618,345,45.285
B,3,1943600,vowelstep7.wav,None,1000,9,1989618,328,47.285
B,3,1943600,vowelstep3.wav,None,1000,9,1991617,327,49.285
B,3,1943600,sinestep7.wav,None,1000,9,1993617,327,51.285
B,3,1943600,sinestep3.wav,None,1000,9,1995617,333,53.285
B,3,1943600,sinestep1.wav,None,1000,9,1997618,333,55.285
B,3,1943600,sinestep1.wav,None,1000,9,1999618,333,57.285
B,3,1943600,sinestep5.wav,None,1000,9,2001618,345,59.285
B,3,1943600,vowelstep5.wav,None,1000,9,2003618,322,61.285
B,3,1943600,vowelstep3_catch.wav,2,530,9,2005618,325,63.285
B,3,1943600,vowelstep7.wav,None,1000,9,2007618,792,65.285
B,3,1943600,sinestep1.wav,None,1000,9,2009618,323,67.285
B,3,1943600,vowelstep5.wav,None,1000,9,2011618,336,69.285
B,3,1943600,vowelstep5_catch.wav,2,429,9,2013618,337,71.285
B,3,1943600,vowelstep7.wav,None,1000,9,2015618,909,73.285
B,3,1943600,sinestep3.wav,None,1000,9,2017618,314,75.285
B,3,1943600,vowelstep7_catch.wav,2,589,9,2019618,325,77.285
B,3,1943600,sinestep5.wav,None,1000,9,2021618,734,79.285
B,3,1943600,vowelstep5.wav,None,1000,9,2023618,336,81.285
B,3,1943600,silence.wav,None,1000,9,2025618,335,83.285
B,3,1943600,silence.wav,None,1000,9,2027618,330,85.285
B,3,1943600,vowelstep3.wav,None,1000,9,2029618,344,87.285
B,3,1943600,silence.wav,None,1000,9,2031619,322,89.285
B,3,1943600,sinestep1.wav,None,1000,9,2033619,325,91.285
B,3,1943600,sinestep1.wav,None,1000,9,2035619,321,93.285
B,3,1943600,sinestep5.wav,None,1000,9,2037619,324,95.285
B,3,1943600,vowelstep7.wav,None,1000,9,2039618,334,97.285
B,3,1943600,sinestep5.wav,None,1000,9,2041618,333,99.285
B,3,1943600,sinestep5.wav,None,1000,9,2043618,340,101.285
B,3,1943600,silence.wav,None,1000,9,2045618,312,103.285
B,3,1943600,vowelstep1.wav,None,1000,9,2047618,322,105.285
B,3,1943600,silence.wav,None,1000,9,2049619,321,107.285
B,3,1943600,sinestep1.wav,None,1000,9,2051619,324,109.285
B,3,1943600,vowelstep7.wav,None,1000,9,2053619,332,111.285
B,3,1943600,silence.wav,None,1000,9,2055619,333,113.285
B,3,1943600,sinestep1.wav,None,1000,9,2057619,342,115.285
B,3,1943600,vowelstep3.wav,None,1000,9,2059619,343,117.285
B,3,1943600,vowelstep5.wav,None,1000,9,2061619,319,119.285
B,3,1943600,silence.wav,None,1000,9,2063618,320,121.285
B,3,1943600,sinestep3.wav,None,1000,9,2065618,322,123.285
B,3,1943600,sinestep5.wav,None,1000,9,2067619,328,125.285
B,3,1943600,silence.wav,None,1000,9,2069619,332,127.285
B,3,1943600,vowelstep5.wav,None,1000,9,2071619,341,129.285
B,3,1943600,sinestep3.wav,None,1000,9,2073619,342,131.285
B,3,1943600,sinestep5.wav,None,1000,9,2075619,318,133.285
B,3,1943600,sinestep5.wav,None,1000,9,2077619,322,135.285
B,3,1943600,sinestep7.wav,None,1000,9,2079619,316,137.285
B,3,1943600,sinestep7.wav,None,1000,9,2081619,330,139.285
B,3,1943600,vowelstep5.wav,None,1000,9,2083619,329,141.285
B,3,1943600,sinestep1.wav,None,1000,9,2085603,330,143.285
B,3,1943600,vowelstep7.wav,None,1000,9,2087619,339,145.285
B,3,1943600,sinestep7.wav,None,1000,9,2089619,319,147.285
B,3,1943600,vowelstep5.wav,None,1000,9,2091619,317,149.285
B,3,1943600,vowelstep1.wav,None,1000,9,2093619,320,151.285
B,3,1943600,sinestep3.wav,None,1000,9,2095619,330,153.285
B,3,1943600,silence.wav,None,1000,9,2097619,327,155.285
B,3,1943600,silence.wav,None,1000,9,2099619,330,157.285
B,3,1943600,sinestep7_catch.wav,2,293,9,2101603,328,159.285
B,3,1943600,vowelstep5.wav,None,1000,9,2103620,1046,161.285
B,3,1943600,sinestep7.wav,None,1000,9,2105620,315,163.285
B,3,1943600,vowelstep5.wav,None,1000,9,2107620,319,165.285
B,3,1943600,vowelstep3.wav,None,1000,9,2109620,325,167.285
B,3,1943600,silence.wav,None,1000,9,2111619,330,169.285
B,3,1943600,sinestep3.wav,None,1000,9,2113603,328,171.285
B,3,1943600,sinestep7_catch.wav,2,593,9,2115603,338,173.285
B,3,1943600,sinestep3.wav,None,1000,9,2117619,745,175.285
B,3,1943600,sinestep5_catch.wav,2,540,9,2119603,318,177.285
B,3,1943600,vowelstep5.wav,None,1000,9,2121603,802,179.285
B,3,1943600,silence.wav,None,1000,9,2123620,348,181.285
B,3,1943600,sinestep7.wav,None,1000,9,2125620,323,183.285
B,3,1943600,silence.wav,None,1000,9,2127620,327,185.285
B,3,1943600,sinestep3.wav,None,1000,9,2129603,339,187.285
B,3,1943600,silence.wav,None,1000,9,2131603,335,189.285
B,3,1943600,vowelstep7.wav,None,1000,9,2133603,339,191.285
B,3,1943600,vowelstep3.wav,None,1000,9,2135620,344,193.285
B,3,1943600,vowelstep3.wav,None,1000,9,2137604,329,195.285
B,3,1943600,sinestep7.wav,None,1000,9,2139604,344,197.285
B,3,1943600,sinestep7.wav,None,1000,9,2141604,358,199.285
B,3,1943600,sinestep3.wav,None,1000,9,2143620,333,201.285
B,3,1943600,sinestep3_catch.wav,2,492,9,2145603,318,203.285
B,3,1943600,sinestep1.wav,None,1000,9,2147603,835,205.285
B,3,1943600,sinestep1.wav,None,1000,9,2149603,348,207.285
B,3,1943600,sinestep3.wav,None,1000,9,2151603,347,209.285
B,3,1943600,silence.wav,None,1000,9,2153620,347,211.285
B,3,1943600,silence.wav,None,1000,9,2155604,326,213.285
B,3,1943600,sinestep5_catch.wav,2,410,9,2157604,318,215.285
B,3,1943600,sinestep7.wav,None,1000,9,2159621,923,217.285
B,3,1943600,sinestep7.wav,None,1000,9,2161604,315,219.285
B,3,1943600,vowelstep3.wav,None,1000,9,2163604,335,221.285
B,3,1943600,sinestep1_catch.wav,2,166,9,2165604,343,223.285
B,3,1943600,vowelstep5.wav,None,1000,9,2167604,1176,225.285
B,3,1943600,sinestep1.wav,None,1000,9,2169603,342,227.285
B,3,1943600,vowelstep1.wav,None,1000,9,2171604,323,229.285
B,3,1943600,vowelstep1.wav,None,1000,9,2173604,333,231.285
B,3,1943600,sinestep5.wav,None,1000,9,2175604,330,233.285
B,3,1943600,silence.wav,None,1000,9,2177604,347,235.285
B,3,1943600,silence.wav,None,1000,9,2179604,343,237.285
B,3,1943600,vowelstep1.wav,None,1000,9,2181604,345,239.285
B,3,1943600,vowelstep1.wav,None,1000,9,2183604,344,241.285
B,3,1943600,silence.wav,None,1000,9,2185604,335,243.285
B,3,1943600,vowelstep1_catch.wav,2,380,9,2187604,335,245.285
B,3,1943600,sinestep7.wav,None,1000,9,2189605,951,247.285
B,3,1943600,sinestep1.wav,None,1000,9,2191605,335,249.285
B,3,1943600,vowelstep1.wav,None,1000,9,2193604,343,251.285
B,3,1943600,vowelstep3.wav,None,1000,9,2195604,344,253.285
B,3,1943600,sinestep3.wav,None,1000,9,2197604,342,255.285
B,3,1943600,silence.wav,None,1000,9,2199604,323,257.285
B,3,1943600,vowelstep3.wav,None,1000,9,2201604,330,259.285
B,3,1943600,silence.wav,None,1000,9,2203604,334,261.285
B,3,1943600,vowelstep3.wav,None,1000,9,2205604,340,263.285
B,3,1943600,sinestep5.wav,None,1000,9,2207605,345,265.285
B,3,1943600,vowelstep3_catch.wav,2,312,9,2209605,341,267.285
B,3,1943600,sinestep3.wav,None,1000,9,2211605,1028,269.285
B,3,1943600,sinestep1.wav,None,1000,9,2213605,353,271.285
B,3,1943600,vowelstep3.wav,None,1000,9,2215605,333,273.285
B,3,1943600,vowelstep1.wav,None,1000,9,2217604,334,275.285
B,3,1943600,vowelstep5_catch.wav,2,526,9,2219604,333,277.285
B,3,1943600,vowelstep1.wav,None,1000,9,2221604,809,279.285
B,3,1943600,vowelstep5.wav,None,1000,9,2223604,341,281.285
B,3,1943600,sinestep7.wav,None,1000,9,2225605,335,283.285
B,3,1943600,vowelstep7.wav,None,1000,9,2227605,354,285.285
B,3,1943600,vowelstep1_catch.wav,2,664,9,2229605,329,287.285
B,3,1943600,sinestep1.wav,None,1000,9,2231605,665,289.285
B,3,1943600,vowelstep1.wav,None,1000,9,2233605,332,291.285
B,3,1943600,sinestep5.wav,None,1000,9,2235605,339,293.285
B,3,1943600,vowelstep7.wav,None,1000,9,2237605,342,295.285
B,3,1943600,sinestep7.wav,None,1000,9,2239605,338,297.285
B,3,1943600,vowelstep7_catch.wav,2,563,9,2241605,322,299.285
B,3,1943600,sinestep3.wav,None,1000,9,2243605,767,301.285
B,3,1943600,vowelstep3.wav,None,1000,9,2245605,351,303.285
B,3,1943600,sinestep5.wav,None,1000,9,2247605,357,305.285
B,3,1943600,vowelstep1.wav,None,1000,9,2249605,342,307.285
B,3,1943600,vowelstep7.wav,None,1000,9,2251605,335,309.285
B,3,1943600,vowelstep1.wav,None,1000,9,2253605,342,311.285
B,3,1943600,sinestep7.wav,None,1000,9,2255605,335,313.285
B,3,1943600,sinestep3.wav,None,1000,9,2257605,352,315.285
B,3,1943600,silence.wav,None,1000,9,2259606,349,317.285
B,3,1943600,vowelstep1.wav,None,1000,9,2261606,350,319.285
A,4,2334565,sinestep5_catch.wav,2,662,9,2334573,0,1.285
A,4,2334565,vowelstep1.wav,None,1000,9,2336573,688,3.285
A,4,2334565,vowelstep3.wav,None,1000,9,2338573,349,5.285
A,4,2334565,sinestep1.wav,None,1000,9,2340573,330,7.285
A,4,2334565,sinestep5_catch.wav,2,217,9,2342573,329,9.285
A,4,2334565,sinestep7.wav,None,1000,9,2344573,1106,11.285
A,4,2334565,sinestep3.wav,None,1000,9,2346574,332,13.285
A,4,2334565,silence.wav,None,1000,9,2348574,337,15.285
A,4,2334565,vowelstep7.wav,None,1000,9,2350574,347,17.285
A,4,2334565,sinestep7.wav,None,1000,9,2352574,319,19.285
A,4,2334565,vowelstep5_catch.wav,2,315,9,2354573,325,21.285
A,4,2334565,sinestep7.wav,None,1000,9,2356573,1012,23.285
A,4,2334565,sinestep3.wav,None,1000,9,2358573,338,25.285
A,4,2334565,silence.wav,None,1000,9,2360573,333,27.285
A,4,2334565,sinestep3.wav,None,1000,9,2362573,338,29.285
A,4,2334565,sinestep5_catch.wav,2,156,9,2364574,336,31.285
A,4,2334565,sinestep1.wav,None,1000,9,2366574,1191,33.285
A,4,2334565,sinestep1.wav,None,1000,9,2368574,326,35.285
A,4,2334565,sinestep5.wav,None,1000,9,2370574,325,37.285
A,4,2334565,vowelstep3.wav,None,1000,9,2372574,328,39.285
A,4,2334565,vowelstep5.wav,None,1000,9,2374574,338,41.285
A,4,2334565,vowelstep3.wav,None,1000,9,2376574,339,43.285
A,4,2334565,vowelstep1.wav,None,1000,9,2378573,346,45.285
A,4,2334565,vowelstep3.wav,None,1000,9,2380573,346,47.285
A,4,2334565,sinestep3.wav,None,1000,9,2382574,329,49.285
A,4,2334565,sinestep7.wav,None,1000,9,2384574,328,51.285
A,4,2334565,sinestep5.wav,None,1000,9,2386574,336,53.285
A,4,2334565,vowelstep7_catch.wav,2,386,9,2388574,337,55.285
A,4,2334565,silence.wav,None,1000,9,2390574,945,57.285
A,4,2334565,vowelstep3.wav,None,1000,9,2392574,336,59.285
A,4,2334565,vowelstep1.wav,None,1000,9,2394574,319,61.285
A,4,2334565,silence.wav,None,1000,9,2396574,328,63.285
A,4,2334565,sinestep3.wav,None,1000,9,2398574,326,65.285
A,4,2334565,sinestep7.wav,None,1000,9,2400575,326,67.285
A,4,2334565,sinestep5.wav,None,1000,9,2402575,334,69.285
A,4,2334565,sinestep5.wav,None,1000,9,2404574,337,71.285
A,4,2334565,sinestep7.wav,None,1000,9,2406574,338,73.285
A,4,2334565,sinestep1.wav,None,1000,9,2408574,345,75.285
A,4,2334565,sinestep5.wav,None,1000,9,2410574,328,77.285
A,4,2334565,vowelstep1.wav,None,1000,9,2412574,327,79.285
A,4,2334565,sinestep1.wav,None,1000,9,2414574,355,81.285
A,4,2334565,vowelstep5.wav,None,1000,9,2416575,326,83.285
A,4,2334565,sinestep1.wav,None,1000,9,2418575,336,85.285
A,4,2334565,silence.wav,None,1000,9,2420575,331,87.285
A,4,2334565,vowelstep1.wav,None,1000,9,2422575,346,89.285
A,4,2334565,sinestep3.wav,None,1000,9,2424575,343,91.285
A,4,2334565,vowelstep5.wav,None,1000,9,2426574,346,93.285
A,4,2334565,vowelstep5.wav,None,1000,9,2428574,347,95.285
A,4,2334565,vowelstep5.wav,None,1000,9,2430574,336,97.285
A,4,2334565,vowelstep7.wav,None,1000,9,2432574,336,99.285
A,4,2334565,vowelstep3.wav,None,1000,9,2434575,331,101.285
A,4,2334565,sinestep1.wav,None,1000,9,2436575,333,103.285
A,4,2334565,sinestep1.wav,None,1000,9,2438575,341,105.285
A,4,2334565,vowelstep7.wav,None,1000,9,2440575,342,107.285
A,4,2334565,vowelstep1.wav,None,1000,9,2442575,324,109.285
A,4,2334565,vowelstep7.wav,None,1000,9,2444575,324,111.285
A,4,2334565,silence.wav,None,1000,9,2446575,334,113.285
A,4,2334565,sinestep1.wav,None,1000,9,2448575,335,115.285
A,4,2334565,vowelstep1.wav,None,1000,9,2450575,339,117.285
A,4,2334565,silence.wav,None,1000,9,2452575,345,119.285
A,4,2334565,vowelstep1.wav,None,1000,9,2454575,338,121.285
A,4,2334565,vowelstep3.wav,None,1000,9,2456575,345,123.285
A,4,2334565,vowelstep1.wav,None,1000,9,2458575,332,125.285
A,4,2334565,sinestep7.wav,None,1000,9,2460575,333,127.285
A,4,2334565,silence.wav,None,1000,9,2462575,331,129.285
A,4,2334565,vowelstep1.wav,None,1000,9,2464575,332,131.285
A,4,2334565,silence.wav,None,1000,9,2466575,342,133.285
A,4,2334565,sinestep7.wav,None,1000,9,2468575,342,135.285
A,4,2334565,vowelstep5.wav,None,1000,9,2470576,352,137.285
A,4,2334565,sinestep7.wav,None,1000,9,2472576,353,139.285
A,4,2334565,sinestep3.wav,None,1000,9,2474576,332,141.285
A,4,2334565,vowelstep5.wav,None,1000,9,2476575,332,143.285
A,4,2334565,silence.wav,None,1000,9,2478575,332,145.285
A,4,2334565,sinestep3.wav,None,1000,9,2480575,341,147.285
A,4,2334565,sinestep5.wav,None,1000,9,2482575,340,149.285
A,4,2334565,sinestep3.wav,None,1000,9,2484575,338,151.285
A,4,2334565,vowelstep3.wav,None,1000,9,2486576,319,153.285
A,4,2334565,sinestep3.wav,None,1000,9,2488576,329,155.285
A,4,2334565,vowelstep7_catch.wav,2,359,9,2490576,329,157.285
A,4,2334565,vowelstep7.wav,None,1000,9,2492576,967,159.285
A,4,2334565,vowelstep5.wav,None,1000,9,2494576,341,161.285
A,4,2334565,sinestep5.wav,None,1000,9,2496576,340,163.285
A,4,2334565,silence.wav,None,1000,9,2498576,336,165.285
A,4,2334565,sinestep5.wav,None,1000,9,2500575,351,167.285
A,4,2334565,vowelstep5_catch.wav,2,417,9,2502575,326,169.285
A,4,2334565,silence.wav,None,1000,9,2504576,904,171.285
A,4,2334565,sinestep7.wav,None,1000,9,2506576,331,173.285
A,4,2334565,sinestep5.wav,None,1000,9,2508576,334,175.285
A,4,2334565,sinestep7.wav,None,1000,9,2510576,338,177.285
A,4,2334565,vowelstep3.wav,None,1000,9,2512576,350,179.285
A,4,2334565,sinestep5.wav,None,1000,9,2514576,346,181.285
A,4,2334565,vowelstep1.wav,None,1000,9,2516576,325,183.285
A,4,2334565,vowelstep5.wav,None,1000,9,2518576,323,185.285
A,4,2334565,sinestep5.wav,None,1000,9,2520576,340,187.285
A,4,2334565,vowelstep1.wav,None,1000,9,2522577,338,189.285
A,4,2334565,silence.wav,None,1000,9,2524576,339,191.285
A,4,2334565,sinestep1.wav,None,1000,9,2526576,339,193.285
A,4,2334565,vowelstep5.wav,None,1000,9,2528576,349,195.285
A,4,2334565,sinestep3.wav,None,1000,9,2530576,329,197.285
A,4,2334565,silence.wav,None,1000,9,2532576,328,199.285
A,4,2334565,vowelstep3.wav,None,1000,9,2534576,328,201.285
A,4,2334565,vowelstep3_catch.wav,2,299,9,2536576,338,203.285
A,4,2334565,vowelstep5.wav,None,1000,9,2538577,1035,205.285
A,4,2334565,vowelstep1_catch.wav,2,457,9,2540577,336,207.285
A,4,2334565,silence.wav,None,1000,9,2542577,885,209.285
A,4,2334565,sinestep3.wav,None,1000,9,2544577,318,211.285
A,4,2334565,vowelstep5.wav,None,1000,9,2546577,326,213.285
A,4,2334565,silence.wav,None,1000,9,2548576,323,215.285
A,4,2334565,sinestep5.wav,2,351,9,2550576,338,217.285
A,4,2334565,vowelstep7.wav,None,1000,9,2552576,981,219.285
A,4,2334565,silence.wav,None,1000,9,2554576,337,221.285
A,4,2334565,vowelstep3.wav,None,1000,9,2556577,344,223.285
A,4,2334565,sinestep7.wav,2,367,9,2558577,316,225.285
A,4,2334565,silence.wav,None,1000,9,2560577,955,227.285
A,4,2334565,vowelstep3.wav,None,1000,9,2562577,326,229.285
A,4,2334565,vowelstep5.wav,None,1000,9,2564577,335,231.285
A,4,2334565,vowelstep7.wav,None,1000,9,2566577,337,233.285
A,4,2334565,vowelstep3.wav,None,1000,9,2568577,336,235.285
A,4,2334565,vowelstep5.wav,None,1000,9,2570577,337,237.285
A,4,2334565,sinestep1_catch.wav,2,285,9,2572576,327,239.285
A,4,2334565,sinestep3.wav,None,1000,9,2574577,1040,241.285
A,4,2334565,sinestep1.wav,None,1000,9,2576577,326,243.285
A,4,2334565,sinestep3_catch.wav,2,503,9,2578577,332,245.285
A,4,2334565,sinestep7.wav,None,1000,9,2580577,826,247.285
A,4,2334565,vowelstep1.wav,None,1000,9,2582577,335,249.285
A,4,2334565,sinestep3.wav,None,1000,9,2584577,334,251.285
A,4,2334565,vowelstep7.wav,None,1000,9,2586577,315,253.285
A,4,2334565,silence.wav,None,1000,9,2588577,326,255.285
A,4,2334565,sinestep1.wav,None,1000,9,2590577,325,257.285
A,4,2334565,silence.wav,None,1000,9,2592578,335,259.285
A,4,2334565,vowelstep5.wav,None,1000,9,2594578,335,261.285
A,4,2334565,sinestep5_catch.wav,2,222,9,2596577,334,263.285
A,4,2334565,vowelstep7.wav,None,1000,9,2598577,1112,265.285
A,4,2334565,sinestep3.wav,None,1000,9,2600577,323,267.285
A,4,2334565,vowelstep1.wav,None,1000,9,2602577,324,269.285
A,4,2334565,vowelstep3.wav,None,1000,9,2604577,326,271.285
A,4,2334565,sinestep7_catch.wav,2,284,9,2606577,324,273.285
A,4,2334565,silence.wav,None,1000,9,2608578,1046,275.285
A,4,2334565,vowelstep7.wav,None,1000,9,2610578,332,277.285
A,4,2334565,sinestep7.wav,None,1000,9,2612578,334,279.285
A,4,2334565,sinestep1.wav,None,1000,9,2614578,343,281.285
A,4,2334565,vowelstep7.wav,None,1000,9,2616578,325,283.285
A,4,2334565,sinestep5.wav,None,1000,9,2618578,323,285.285
A,4,2334565,sinestep5.wav,None,1000,9,2620577,324,287.285
A,4,2334565,sinestep7_catch.wav,2,179,9,2622577,334,289.285
A,4,2334565,sinestep5.wav,None,1000,9,2624577,1152,291.285
A,4,2334565,silence.wav,None,1000,9,2626578,332,293.285
A,4,2334565,vowelstep3.wav,None,1000,9,2628578,310,295.285
A,4,2334565,silence.wav,None,1000,9,2630578,320,297.285
A,4,2334565,vowelstep1.wav,None,1000,9,2632578,323,299.285
A,4,2334565,sinestep1.wav,None,1000,9,2634578,321,301.285
A,4,2334565,sinestep7.wav,None,1000,9,2636578,333,303.285
A,4,2334565,vowelstep7.wav,None,1000,9,2638578,332,305.285
A,4,2334565,sinestep1_catch.wav,2,335,9,2640578,332,307.285
A,4,2334565,silence.wav,None,1000,9,2642578,999,309.285
A,4,2334565,silence.wav,None,1000,9,2644579,320,311.285
A,4,2334565,vowelstep7.wav,None,1000,9,2646578,321,313.285
A,4,2334565,sinestep1.wav,None,1000,9,2648578,320,315.285
A,4,2334565,vowelstep7.wav,None,1000,9,2650578,321,317.285
A,4,2334565,vowelstep7.wav,None,1000,9,2652578,330,319.285
E,5,2723396,vowelstep7.wav,None,1000,9,2723413,0,1.285
E,5,2723396,sinestep3.wav,None,1000,9,2725412,318,3.285
E,5,2723396,sinestep5.wav,None,1000,9,2727412,267,5.285
E,5,2723396,sinestep1.wav,None,1000,9,2729412,326,7.285
E,5,2723396,sinestep5.wav,None,1000,9,2731413,337,9.285
E,5,2723396,silence.wav,None,1000,9,2733413,338,11.285
E,5,2723396,vowelstep1.wav,None,1000,9,2735413,337,13.285
E,5,2723396,vowelstep7.wav,None,1000,9,2737413,336,15.285
E,5,2723396,vowelstep1.wav,None,1000,9,2739413,325,17.285
E,5,2723396,sinestep1_catch.wav,2,279,9,2741413,326,19.285
E,5,2723396,vowelstep5.wav,None,1000,9,2743413,1047,21.285
E,5,2723396,sinestep5.wav,None,1000,9,2745413,320,23.285
E,5,2723396,vowelstep5.wav,None,1000,9,2747413,335,25.285
E,5,2723396,vowelstep3.wav,None,1000,9,2749414,316,27.285
E,5,2723396,sinestep1.wav,None,1000,9,2751413,315,29.285
E,5,2723396,vowelstep5.wav,None,1000,9,2753413,343,31.285
E,5,2723396,silence.wav,None,1000,9,2755413,325,33.285
E,5,2723396,silence.wav,None,1000,9,2757413,327,35.285
E,5,2723396,sinestep3.wav,None,1000,9,2759413,326,37.285
E,5,2723396,sinestep3.wav,None,1000,9,2761413,335,39.285
E,5,2723396,sinestep3.wav,None,1000,9,2763413,335,41.285
E,5,2723396,sinestep1.wav,None,1000,9,2765413,335,43.285
E,5,2723396,vowelstep1.wav,None,1000,9,2767414,346,45.285
E,5,2723396,sinestep1.wav,None,1000,9,2769414,326,47.285
E,5,2723396,vowelstep7.wav,None,1000,9,2771414,324,49.285
E,5,2723396,vowelstep5.wav,None,1000,9,2773414,323,51.285
E,5,2723396,sinestep7.wav,None,1000,9,2775413,335,53.285
E,5,2723396,sinestep1.wav,None,1000,9,2777413,332,55.285
E,5,2723396,vowelstep5.wav,None,1000,9,2779413,333,57.285
E,5,2723396,sinestep3.wav,None,1000,9,2781413,346,59.285
E,5,2723396,vowelstep1.wav,None,1000,9,2783414,321,61.285
E,5,2723396,vowelstep5.wav,None,1000,9,2785414,324,63.285
E,5,2723396,vowelstep3.wav,None,1000,9,2787414,324,65.285
E,5,2723396,sinestep1.wav,None,1000,9,2789414,324,67.285
E,5,2723396,vowelstep3.wav,None,1000,9,2791414,334,69.285
E,5,2723396,silence.wav,None,1000,9,2793414,334,71.285
E,5,2723396,vowelstep3.wav,None,1000,9,2795414,344,73.285
E,5,2723396,sinestep3_catch.wav,2,513,9,2797414,315,75.285
E,5,2723396,sinestep3.wav,None,1000,9,2799413,802,77.285
E,5,2723396,vowelstep3.wav,None,1000,9,2801414,323,79.285
E,5,2723396,vowelstep7.wav,None,1000,9,2803414,330,81.285
E,5,2723396,silence.wav,None,1000,9,2805414,333,83.285
E,5,2723396,sinestep3.wav,None,1000,9,2807414,333,85.285
E,5,2723396,silence.wav,None,1000,9,2809414,338,87.285
E,5,2723396,sinestep1.wav,None,1000,9,2811414,324,89.285
E,5,2723396,sinestep5_catch.wav,2,351,9,2813414,321,91.285
E,5,2723396,vowelstep3.wav,None,1000,9,2815414,955,93.285
E,5,2723396,sinestep5.wav,None,1000,9,2817414,330,95.285
E,5,2723396,vowelstep7.wav,None,1000,9,2819415,332,97.285
E,5,2723396,sinestep1.wav,None,1000,9,2821415,329,99.285
E,5,2723396,sinestep5.wav,None,1000,9,2823414,339,101.285
E,5,2723396,sinestep5.wav,None,1000,9,2825414,313,103.285
E,5,2723396,vowelstep7.wav,None,1000,9,2827414,321,105.285
E,5,2723396,vowelstep3.wav,None,1000,9,2829414,321,107.285
E,5,2723396,vowelstep7.wav,None,1000,9,2831414,331,109.285
E,5,2723396,sinestep5.wav,None,1000,9,2833414,331,111.285
E,5,2723396,vowelstep3.wav,None,1000,9,2835414,331,113.285
E,5,2723396,vowelstep7.wav,None,1000,9,2837415,330,115.285
E,5,2723396,sinestep3.wav,None,1000,9,2839415,307,117.285
E,5,2723396,vowelstep7.wav,None,1000,9,2841415,319,119.285
E,5,2723396,silence.wav,None,1000,9,2843415,318,121.285
E,5,2723396,silence.wav,None,1000,9,2845415,331,123.285
E,5,2723396,sinestep7.wav,None,1000,9,2847414,330,125.285
E,5,2723396,sinestep7_catch.wav,2,363,9,2849414,331,127.285
E,5,2723396,sinestep7.wav,None,1000,9,2851414,962,129.285
E,5,2723396,silence.wav,None,1000,9,2853415,320,131.285
E,5,2723396,sinestep7_catch.wav,2,510,9,2855415,319,133.285
E,5,2723396,sinestep7.wav,None,1000,9,2857415,811,135.285
E,5,2723396,sinestep5_catch.wav,2,359,9,2859415,319,137.285
E,5,2723396,sinestep1.wav,None,1000,9,2861415,966,139.285
E,5,2723396,sinestep1.wav,None,1000,9,2863415,329,141.285
E,5,2723396,sinestep1.wav,None,1000,9,2865415,329,143.285
E,5,2723396,sinestep3.wav,None,1000,9,2867415,309,145.285
E,5,2723396,vowelstep5.wav,None,1000,9,2869415,317,147.285
E,5,2723396,silence.wav,None,1000,9,2871415,320,149.285
E,5,2723396,sinestep3_catch.wav,2,470,9,2873415,328,151.285
E,5,2723396,silence.wav,None,1000,9,2875415,852,153.285
E,5,2723396,sinestep7.wav,None,1000,9,2877399,327,155.285
E,5,2723396,sinestep5.wav,None,1000,9,2879415,327,157.285
E,5,2723396,silence.wav,None,1000,9,2881415,316,159.285
E,5,2723396,vowelstep5.wav,None,1000,9,2883415,318,161.285
E,5,2723396,vowelstep1.wav,None,1000,9,2885415,318,163.285
E,5,2723396,vowelstep3.wav,None,1000,9,2887415,316,165.285
E,5,2723396,sinestep5.wav,None,1000,9,2889416,322,167.285
E,5,2723396,sinestep7.wav,None,1000,9,2891416,328,169.285
E,5,2723396,vowelstep1.wav,None,1000,9,2893399,327,171.285
E,5,2723396,vowelstep7.wav,None,1000,9,2895399,337,173.285
E,5,2723396,sinestep3.wav,None,1000,9,2897399,337,175.285
E,5,2723396,silence.wav,None,1000,9,2899415,337,177.285
E,5,2723396,sinestep1_catch.wav,2,330,9,2901415,317,179.285
E,5,2723396,sinestep7.wav,None,1000,9,2903415,990,181.285
E,5,2723396,vowelstep1.wav,None,1000,9,2905415,323,183.285
E,5,2723396,sinestep5.wav,None,1000,9,2907416,323,185.285
E,5,2723396,sinestep5.wav,None,1000,9,2909399,307,187.285
E,5,2723396,vowelstep1.wav,None,1000,9,2911399,334,189.285
E,5,2723396,sinestep7.wav,None,1000,9,2913399,336,191.285
E,5,2723396,sinestep3.wav,None,1000,9,2915399,346,193.285
E,5,2723396,sinestep7.wav,None,1000,9,2917416,346,195.285
E,5,2723396,silence.wav,None,1000,9,2919415,325,197.285
E,5,2723396,vowelstep1.wav,None,1000,9,2921415,326,199.285
E,5,2723396,sinestep1.wav,None,1000,9,2923416,336,201.285
E,5,2723396,vowelstep1.wav,None,1000,9,2925400,312,203.285
E,5,2723396,vowelstep1.wav,None,1000,9,2927400,335,205.285
E,5,2723396,vowelstep1_catch.wav,2,109,9,2929399,344,207.285
E,5,2723396,vowelstep1.wav,None,1000,9,2931416,1235,209.285
E,5,2723396,vowelstep1.wav,None,1000,9,2933399,325,211.285
E,5,2723396,silence.wav,None,1000,9,2935416,346,213.285
E,5,2723396,sinestep7.wav,None,1000,9,2937416,305,215.285
E,5,2723396,vowelstep7.wav,None,1000,9,2939416,306,217.285
E,5,2723396,vowelstep3_catch.wav,2,279,9,2941400,315,219.285
E,5,2723396,vowelstep5.wav,None,1000,9,2943400,1054,221.285
E,5,2723396,sinestep3.wav,None,1000,9,2945400,344,223.285
E,5,2723396,silence.wav,None,1000,9,2947400,343,225.285
E,5,2723396,sinestep1.wav,None,1000,9,2949400,354,227.285
E,5,2723396,sinestep5.wav,None,1000,9,2951400,335,229.285
E,5,2723396,sinestep5.wav,None,1000,9,2953416,330,231.285
E,5,2723396,sinestep3.wav,None,1000,9,2955416,316,233.285
E,5,2723396,sinestep5.wav,None,1000,9,2957399,308,235.285
E,5,2723396,vowelstep3.wav,None,1000,9,2959400,344,237.285
E,5,2723396,sinestep7.wav,None,1000,9,2961400,342,239.285
E,5,2723396,sinestep7.wav,None,1000,9,2963400,343,241.285
E,5,2723396,silence.wav,None,1000,9,2965400,332,243.285
E,5,2723396,sinestep3.wav,None,1000,9,2967400,330,245.285
E,5,2723396,sinestep3.wav,None,1000,9,2969400,333,247.285
E,5,2723396,vowelstep3.wav,None,1000,9,2971416,330,249.285
E,5,2723396,silence.wav,None,1000,9,2973400,321,251.285
E,5,2723396,sinestep7.wav,None,1000,9,2975400,341,253.285
E,5,2723396,silence.wav,None,1000,9,2977400,350,255.285
E,5,2723396,vowelstep7.wav,None,1000,9,2979400,351,257.285
E,5,2723396,vowelstep3.wav,None,1000,9,2981400,328,259.285
E,5,2723396,silence.wav,None,1000,9,2983400,330,261.285
E,5,2723396,vowelstep3.wav,None,1000,9,2985400,339,263.285
E,5,2723396,vowelstep1.wav,None,1000,9,2987400,342,265.285
E,5,2723396,vowelstep5.wav,None,1000,9,2989400,340,267.285
E,5,2723396,silence.wav,None,1000,9,2991400,341,269.285
E,5,2723396,vowelstep3.wav,None,1000,9,2993401,321,271.285
E,5,2723396,sinestep1.wav,None,1000,9,2995401,331,273.285
E,5,2723396,vowelstep5_catch.wav,2,215,9,2997401,331,275.285
E,5,2723396,sinestep7.wav,None,1000,9,2999401,1124,277.285
E,5,2723396,sinestep7.wav,None,1000,9,3001400,340,279.285
E,5,2723396,vowelstep7.wav,None,1000,9,3003400,340,281.285
E,5,2723396,silence.wav,None,1000,9,3005400,23,283.285
E,5,2723396,sinestep5.wav,None,1000,9,3007400,351,285.285
E,5,2723396,silence.wav,None,1000,9,3009400,331,287.285
E,5,2723396,silence.wav,None,1000,9,3011401,328,289.285
E,5,2723396,vowelstep5.wav,None,1000,9,3013401,330,291.285
E,5,2723396,vowelstep5.wav,None,1000,9,3015401,340,293.285
E,5,2723396,silence.wav,None,1000,9,3017401,340,295.285
E,5,2723396,vowelstep5.wav,None,1000,9,3019401,340,297.285
E,5,2723396,vowelstep7_catch.wav,2,255,9,3021401,318,299.285
E,5,2723396,vowelstep7_catch.wav,2,536,9,3023401,1072,301.285
E,5,2723396,vowelstep5.wav,None,1000,9,3025401,793,303.285
E,5,2723396,sinestep1.wav,None,1000,9,3027400,331,305.285
E,5,2723396,vowelstep3.wav,None,1000,9,3029401,339,307.285
E,5,2723396,vowelstep5_catch.wav,2,324,9,3031401,338,309.285
E,5,2723396,vowelstep7.wav,None,1000,9,3033401,1007,311.285
E,5,2723396,vowelstep5.wav,None,1000,9,3035401,339,313.285
E,5,2723396,vowelstep7.wav,None,1000,9,3037401,325,315.285
E,5,2723396,vowelstep1.wav,None,1000,9,3039401,329,317.285
E,5,2723396,vowelstep3_catch.wav,2,334,9,3041401,325,319.285
H,6,3103355,sinestep3.wav,None,1000,9,3103369,0,1.285
H,6,3103355,sinestep7.wav,None,1000,9,3105369,323,3.285
H,6,3103355,sinestep3.wav,None,1000,9,3107369,321,5.285
H,6,3103355,vowelstep3.wav,None,1000,9,3109369,324,7.285
H,6,3103355,vowelstep1.wav,None,1000,9,3111369,332,9.285
H,6,3103355,sinestep7.wav,None,1000,9,3113368,334,11.285
H,6,3103355,vowelstep3.wav,None,1000,9,3115368,333,13.285
H,6,3103355,silence.wav,None,1000,9,3117369,314,15.285
H,6,3103355,vowelstep1.wav,None,1000,9,3119369,323,17.285
H,6,3103355,sinestep5.wav,None,1000,9,3121369,323,19.285
H,6,3103355,sinestep7.wav,None,1000,9,3123369,333,21.285
H,6,3103355,vowelstep7.wav,None,1000,9,3125369,304,23.285
H,6,3103355,vowelstep1_catch.wav,2,162,9,3127369,332,25.285
H,6,3103355,sinestep5.wav,None,1000,9,3129369,1170,27.285
H,6,3103355,vowelstep5.wav,None,1000,9,3131369,322,29.285
H,6,3103355,silence.wav,None,1000,9,3133370,321,31.285
H,6,3103355,vowelstep3_catch.wav,2,337,9,3135370,322,33.285
H,6,3103355,sinestep7.wav,None,1000,9,3137370,983,35.285
H,6,3103355,sinestep5.wav,None,1000,9,3139369,333,37.285
H,6,3103355,silence.wav,None,1000,9,3141369,330,39.285
H,6,3103355,vowelstep3.wav,None,1000,9,3143369,332,41.285
H,6,3103355,vowelstep1.wav,None,1000,9,3145369,341,43.285
H,6,3103355,vowelstep1.wav,None,1000,9,3147369,320,45.285
H,6,3103355,vowelstep3.wav,None,1000,9,3149369,320,47.285
H,6,3103355,sinestep3.wav,None,1000,9,3151370,321,49.285
H,6,3103355,vowelstep1.wav,None,1000,9,3153370,329,51.285
H,6,3103355,sinestep7.wav,None,1000,9,3155370,325,53.285
H,6,3103355,vowelstep7.wav,None,1000,9,3157370,329,55.285
H,6,3103355,vowelstep5_catch.wav,2,211,9,3159370,337,57.285
H,6,3103355,vowelstep5.wav,None,1000,9,3161370,1109,59.285
H,6,3103355,vowelstep3.wav,None,1000,9,3163369,319,61.285
H,6,3103355,vowelstep7_catch.wav,None,1000,9,3165369,320,63.285
H,6,3103355,sinestep3.wav,None,1000,9,3167369,330,65.285
H,6,3103355,sinestep1.wav,None,1000,9,3169370,330,67.285
H,6,3103355,sinestep7.wav,None,1000,9,3171370,330,69.285
H,6,3103355,silence.wav,None,1000,9,3173370,330,71.285
H,6,3103355,vowelstep1.wav,None,1000,9,3175370,319,73.285
H,6,3103355,vowelstep7.wav,None,1000,9,3177370,316,75.285
H,6,3103355,sinestep7.wav,None,1000,9,3179370,315,77.285
H,6,3103355,sinestep1.wav,None,1000,9,3181370,318,79.285
H,6,3103355,sinestep7.wav,None,1000,9,3183370,324,81.285
H,6,3103355,sinestep1.wav,None,1000,9,3185370,323,83.285
H,6,3103355,vowelstep5.wav,None,1000,9,3187370,339,85.285
H,6,3103355,sinestep3.wav,None,1000,9,3189370,307,87.285
H,6,3103355,vowelstep5.wav,None,1000,9,3191370,319,89.285
H,6,3103355,silence.wav,None,1000,9,3193370,320,91.285
H,6,3103355,silence.wav,None,1000,9,3195370,327,93.285
H,6,3103355,sinestep5.wav,None,1000,9,3197370,307,95.285
H,6,3103355,sinestep3.wav,None,1000,9,3199370,329,97.285
H,6,3103355,sinestep7.wav,None,1000,9,3201370,329,99.285
H,6,3103355,sinestep7_catch.wav,2,115,9,3203371,313,101.285
H,6,3103355,silence.wav,None,1000,9,3205371,1200,103.285
H,6,3103355,sinestep3.wav,None,1000,9,3207371,317,105.285
H,6,3103355,silence.wav,None,1000,9,3209371,316,107.285
H,6,3103355,vowelstep1.wav,None,1000,9,3211370,327,109.285
H,6,3103355,vowelstep7.wav,None,1000,9,3213370,327,111.285
H,6,3103355,sinestep5.wav,None,1000,9,3215370,327,113.285
H,6,3103355,silence.wav,None,1000,9,3217370,307,115.285
H,6,3103355,vowelstep7.wav,None,1000,9,3219370,337,117.285
H,6,3103355,vowelstep3.wav,None,1000,9,3221371,317,119.285
H,6,3103355,sinestep5.wav,None,1000,9,3223371,326,121.285
H,6,3103355,sinestep1.wav,None,1000,9,3225371,326,123.285
H,6,3103355,vowelstep3.wav,None,1000,9,3227371,322,125.285
H,6,3103355,vowelstep3.wav,None,1000,9,3229371,325,127.285
H,6,3103355,vowelstep5.wav,None,1000,9,3231371,336,129.285
H,6,3103355,vowelstep1.wav,None,1000,9,3233371,316,131.285
H,6,3103355,vowelstep7.wav,None,1000,9,3235370,316,133.285
H,6,3103355,vowelstep3.wav,None,1000,9,3237370,346,135.285
H,6,3103355,vowelstep5.wav,None,1000,9,3239371,326,137.285
H,6,3103355,vowelstep5.wav,None,1000,9,3241371,325,139.285
H,6,3103355,sinestep7.wav,None,1000,9,3243371,324,141.285
H,6,3103355,vowelstep1.wav,None,1000,9,3245371,334,143.285
H,6,3103355,sinestep3.wav,None,1000,9,3247371,335,145.285
H,6,3103355,sinestep1.wav,None,1000,9,3249371,335,147.285
H,6,3103355,vowelstep1.wav,None,1000,9,3251371,345,149.285
H,6,3103355,sinestep5_catch.wav,2,495,9,3253371,321,151.285
H,6,3103355,sinestep7.wav,None,1000,9,3255371,820,153.285
H,6,3103355,sinestep3_catch.wav,2,292,9,3257372,335,155.285
H,6,3103355,sinestep7.wav,None,1000,9,3259372,1039,157.285
H,6,3103355,sinestep5.wav,None,1000,9,3261371,331,159.285
H,6,3103355,silence.wav,None,1000,9,3263371,333,161.285
H,6,3103355,sinestep1_catch.wav,None,1000,9,3265371,344,163.285
H,6,3103355,vowelstep7.wav,None,1000,9,3267371,323,165.285
H,6,3103355,vowelstep7.wav,None,1000,9,3269371,324,167.285
H,6,3103355,sinestep7.wav,None,1000,9,3271371,324,169.285
H,6,3103355,sinestep3.wav,None,1000,9,3273372,329,171.285
H,6,3103355,sinestep5.wav,None,1000,9,3275372,332,173.285
H,6,3103355,vowelstep1_catch.wav,2,278,9,3277372,332,175.285
H,6,3103355,vowelstep1.wav,None,1000,9,3279372,1034,177.285
H,6,3103355,sinestep3.wav,None,1000,9,3281372,319,179.285
H,6,3103355,sinestep3.wav,None,1000,9,3283371,323,181.285
H,6,3103355,vowelstep5.wav,None,1000,9,3285371,322,183.285
H,6,3103355,sinestep1.wav,None,1000,9,3287371,333,185.285
H,6,3103355,sinestep1.wav,None,1000,9,3289371,329,187.285
H,6,3103355,vowelstep7.wav,None,1000,9,3291372,334,189.285
H,6,3103355,sinestep1.wav,None,1000,9,3293372,339,191.285
H,6,3103355,sinestep5.wav,None,1000,9,3295372,323,193.285
H,6,3103355,vowelstep3_catch.wav,2,160,9,3297372,322,195.285
H,6,3103355,sinestep1.wav,None,1000,9,3299372,1156,197.285
H,6,3103355,silence.wav,None,1000,9,3301372,328,199.285
H,6,3103355,vowelstep1.wav,None,1000,9,3303372,330,201.285
H,6,3103355,vowelstep5_catch.wav,2,170,9,3305372,333,203.285
H,6,3103355,sinestep5.wav,None,1000,9,3307372,1170,205.285
H,6,3103355,sinestep1.wav,None,1000,9,3309372,321,207.285
H,6,3103355,silence.wav,None,1000,9,3311372,317,209.285
H,6,3103355,sinestep3.wav,None,1000,9,3313372,322,211.285
H,6,3103355,silence.wav,None,1000,9,3315372,317,213.285
H,6,3103355,vowelstep7_catch.wav,2,226,9,3317372,326,215.285
H,6,3103355,vowelstep5.wav,None,1000,9,3319372,1103,217.285
H,6,3103355,sinestep7.wav,None,1000,9,3321372,331,219.285
H,6,3103355,silence.wav,None,1000,9,3323372,311,221.285
H,6,3103355,sinestep1.wav,None,1000,9,3325373,320,223.285
H,6,3103355,silence.wav,None,1000,9,3327373,320,225.285
H,6,3103355,silence.wav,None,1000,9,3329373,328,227.285
H,6,3103355,silence.wav,None,1000,9,3331373,326,229.285
H,6,3103355,silence.wav,None,1000,9,3333372,326,231.285
H,6,3103355,sinestep5.wav,2,330,9,3335372,330,233.285
H,6,3103355,silence.wav,None,1000,9,3337372,982,235.285
H,6,3103355,vowelstep3.wav,None,1000,9,3339372,318,237.285
H,6,3103355,silence.wav,None,1000,9,3341372,320,239.285
H,6,3103355,silence.wav,None,1000,9,3343373,319,241.285
H,6,3103355,vowelstep1_catch.wav,2,164,9,3345373,329,243.285
H,6,3103355,vowelstep5.wav,None,1000,9,3347373,1163,245.285
H,6,3103355,vowelstep7.wav,None,1000,9,3349373,328,247.285
H,6,3103355,vowelstep3_catch.wav,2,134,9,3351373,320,249.285
H,6,3103355,vowelstep1.wav,None,1000,9,3353373,1181,251.285
H,6,3103355,sinestep3.wav,None,1000,9,3355373,315,253.285
H,6,3103355,vowelstep5_catch.wav,2,63,9,3357372,327,255.285
H,6,3103355,vowelstep5.wav,None,1000,9,3359372,1261,257.285
H,6,3103355,silence.wav,None,1000,9,3361373,327,259.285
H,6,3103355,vowelstep7.wav,None,1000,9,3363373,327,261.285
H,6,3103355,sinestep5.wav,None,1000,9,3365373,317,263.285
H,6,3103355,vowelstep5.wav,None,1000,9,3367373,314,265.285
H,6,3103355,vowelstep7.wav,None,1000,9,3369373,316,267.285
H,6,3103355,vowelstep3.wav,None,1000,9,3371373,317,269.285
H,6,3103355,vowelstep3.wav,None,1000,9,3373373,326,271.285
H,6,3103355,silence.wav,None,1000,9,3375373,323,273.285
H,6,3103355,vowelstep3.wav,None,1000,9,3377373,336,275.285
H,6,3103355,sinestep1.wav,None,1000,9,3379374,337,277.285
H,6,3103355,silence.wav,None,1000,9,3381373,317,279.285
H,6,3103355,sinestep1.wav,None,1000,9,3383373,317,281.285
H,6,3103355,vowelstep3.wav,None,1000,9,3385373,316,283.285
H,6,3103355,silence.wav,None,1000,9,3387373,322,285.285
H,6,3103355,vowelstep5.wav,None,1000,9,3389373,325,287.285
H,6,3103355,vowelstep5.wav,None,1000,9,3391373,326,289.285
H,6,3103355,vowelstep1.wav,None,1000,9,3393373,338,291.285
H,6,3103355,sinestep5.wav,None,1000,9,3395374,307,293.285
H,6,3103355,vowelstep7.wav,None,1000,9,3397374,315,295.285
H,6,3103355,vowelstep1.wav,None,1000,9,3399374,315,297.285
H,6,3103355,vowelstep7.wav,None,1000,9,3401374,325,299.285
H,6,3103355,vowelstep3.wav,None,1000,9,3403374,325,301.285
H,6,3103355,sinestep1.wav,None,1000,9,3405373,325,303.285
H,6,3103355,sinestep5.wav,None,1000,9,3407373,335,305.285
H,6,3103355,vowelstep5.wav,None,1000,9,3409373,312,307.285
H,6,3103355,sinestep3.wav,None,1000,9,3411373,312,309.285
H,6,3103355,vowelstep7.wav,None,1000,9,3413374,315,311.285
H,6,3103355,sinestep7.wav,None,1000,9,3415374,314,313.285
H,6,3103355,sinestep5.wav,None,1000,9,3417374,324,315.285
H,6,3103355,sinestep3.wav,None,1000,9,3419374,324,317.285
H,6,3103355,sinestep1.wav,None,1000,9,3421374,335,319.285
C,7,3484472,sinestep1.wav,None,1000,9,3484475,0,1.285
C,7,3484472,vowelstep1.wav,None,1000,9,3486492,334,3.285
C,7,3484472,sinestep1.wav,None,1000,9,3488492,318,5.285
C,7,3484472,sinestep1.wav,None,1000,9,3490492,326,7.285
C,7,3484472,vowelstep1.wav,None,1000,9,3492492,328,9.285
C,7,3484472,sinestep1.wav,None,1000,9,3494475,328,11.285
C,7,3484472,sinestep7.wav,None,1000,9,3496475,327,13.285
C,7,3484472,vowelstep7.wav,None,1000,9,3498491,336,15.285
C,7,3484472,vowelstep3.wav,None,1000,9,3500476,315,17.285
C,7,3484472,vowelstep5.wav,None,1000,9,3502475,345,19.285
C,7,3484472,silence.wav,None,1000,9,3504475,347,21.285
C,7,3484472,sinestep3.wav,None,1000,9,3506492,344,23.285
C,7,3484472,vowelstep5.wav,None,1000,9,3508492,325,25.285
C,7,3484472,sinestep1.wav,None,1000,9,3510475,336,27.285
C,7,3484472,vowelstep1.wav,None,1000,9,3512475,336,29.285
C,7,3484472,vowelstep7.wav,None,1000,9,3514475,335,31.285
C,7,3484472,vowelstep3.wav,None,1000,9,3516492,345,33.285
C,7,3484472,sinestep1.wav,None,1000,9,3518476,314,35.285
C,7,3484472,sinestep5.wav,None,1000,9,3520476,344,37.285
C,7,3484472,silence.wav,None,1000,9,3522476,344,39.285
C,7,3484472,vowelstep7.wav,None,1000,9,3524492,353,41.285
C,7,3484472,vowelstep5.wav,None,1000,9,3526475,305,43.285
C,7,3484472,sinestep5.wav,None,1000,9,3528492,333,45.285
C,7,3484472,silence.wav,None,1000,9,3530475,316,47.285
C,7,3484472,sinestep5.wav,None,1000,9,3532475,344,49.285
C,7,3484472,sinestep1.wav,None,1000,9,3534492,345,51.285
C,7,3484472,silence.wav,None,1000,9,3536476,325,53.285
C,7,3484472,vowelstep1.wav,None,1000,9,3538476,323,55.285
C,7,3484472,vowelstep1.wav,None,1000,9,3540476,333,57.285
C,7,3484472,sinestep1.wav,None,1000,9,3542476,334,59.285
C,7,3484472,silence.wav,None,1000,9,3544476,343,61.285
C,7,3484472,vowelstep5.wav,None,1000,9,3546476,343,63.285
C,7,3484472,vowelstep3.wav,None,1000,9,3548476,340,65.285
C,7,3484472,vowelstep3.wav,None,1000,9,3550475,344,67.285
C,7,3484472,vowelstep7.wav,None,1000,9,3552492,333,69.285
C,7,3484472,silence.wav,None,1000,9,3554476,302,71.285
C,7,3484472,vowelstep3.wav,None,1000,9,3556476,333,73.285
C,7,3484472,silence.wav,None,1000,9,3558476,333,75.285
C,7,3484472,sinestep5.wav,None,1000,9,3560476,342,77.285
C,7,3484472,vowelstep7.wav,None,1000,9,3562476,340,79.285
C,7,3484472,vowelstep1_catch.wav,2,214,9,3564476,342,81.285
C,7,3484472,vowelstep3.wav,None,1000,9,3566476,1138,83.285
C,7,3484472,sinestep7.wav,None,1000,9,3568476,332,85.285
C,7,3484472,vowelstep3.wav,None,1000,9,3570477,332,87.285
C,7,3484472,sinestep1.wav,None,1000,9,3572477,341,89.285
C,7,3484472,sinestep7.wav,None,1000,9,3574476,341,91.285
C,7,3484472,sinestep7.wav,None,1000,9,3576476,342,93.285
C,7,3484472,sinestep3.wav,None,1000,9,3578476,341,95.285
C,7,3484472,vowelstep3_catch.wav,2,190,9,3580476,321,97.285
C,7,3484472,sinestep5.wav,None,1000,9,3582476,1138,99.285
C,7,3484472,sinestep5.wav,None,1000,9,3584476,331,101.285
C,7,3484472,vowelstep3.wav,None,1000,9,3586476,331,103.285
C,7,3484472,vowelstep5.wav,None,1000,9,3588477,339,105.285
C,7,3484472,sinestep1.wav,None,1000,9,3590477,341,107.285
C,7,3484472,sinestep3.wav,None,1000,9,3592477,339,109.285
C,7,3484472,vowelstep5.wav,None,1000,9,3594477,349,111.285
C,7,3484472,vowelstep7.wav,None,1000,9,3596477,331,113.285
C,7,3484472,vowelstep1.wav,None,1000,9,3598477,330,115.285
C,7,3484472,sinestep7.wav,None,1000,9,3600476,330,117.285
C,7,3484472,sinestep3.wav,None,1000,9,3602476,331,119.285
C,7,3484472,vowelstep1.wav,None,1000,9,3604476,341,121.285
C,7,3484472,vowelstep1.wav,None,1000,9,3606477,340,123.285
C,7,3484472,sinestep3.wav,None,1000,9,3608477,319,125.285
C,7,3484472,silence.wav,None,1000,9,3610477,329,127.285
C,7,3484472,silence.wav,None,1000,9,3612477,329,129.285
C,7,3484472,vowelstep5_catch.wav,2,370,9,3614477,330,131.285
C,7,3484472,vowelstep5.wav,None,1000,9,3616477,965,133.285
C,7,3484472,silence.wav,None,1000,9,3618477,339,135.285
C,7,3484472,sinestep1.wav,None,1000,9,3620477,339,137.285
C,7,3484472,vowelstep7.wav,None,1000,9,3622477,348,139.285
C,7,3484472,sinestep7.wav,None,1000,9,3624477,327,141.285
C,7,3484472,silence.wav,None,1000,9,3626477,328,143.285
C,7,3484472,silence.wav,None,1000,9,3628477,328,145.285
C,7,3484472,sinestep7.wav,None,1000,9,3630477,327,147.285
C,7,3484472,vowelstep1.wav,None,1000,9,3632477,338,149.285
C,7,3484472,vowelstep5.wav,None,1000,9,3634477,336,151.285
C,7,3484472,vowelstep5.wav,None,1000,9,3636477,348,153.285
C,7,3484472,vowelstep7.wav,None,1000,9,3638477,317,155.285
C,7,3484472,sinestep7.wav,None,1000,9,3640478,326,157.285
C,7,3484472,vowelstep1.wav,None,1000,9,3642478,328,159.285
C,7,3484472,vowelstep3.wav,None,1000,9,3644478,337,161.285
C,7,3484472,sinestep5.wav,None,1000,9,3646478,337,163.285
C,7,3484472,sinestep7.wav,None,1000,9,3648477,336,165.285
C,7,3484472,sinestep1.wav,None,1000,9,3650477,336,167.285
C,7,3484472,sinestep7.wav,None,1000,9,3652477,327,169.285
C,7,3484472,sinestep3.wav,None,1000,9,3654477,327,171.285
C,7,3484472,silence.wav,None,1000,9,3656477,326,173.285
C,7,3484472,vowelstep7.wav,None,1000,9,3658478,326,175.285
C,7,3484472,sinestep7.wav,None,1000,9,3660478,338,177.285
C,7,3484472,sinestep5.wav,None,1000,9,3662478,337,179.285
C,7,3484472,vowelstep7.wav,None,1000,9,3664478,337,181.285
C,7,3484472,vowelstep5.wav,None,1000,9,3666478,346,183.285
C,7,3484472,vowelstep3.wav,None,1000,9,3668478,327,185.285
C,7,3484472,vowelstep7_catch.wav,2,57,9,3670478,326,187.285
C,7,3484472,vowelstep3.wav,None,1000,9,3672477,1266,189.285
C,7,3484472,vowelstep5.wav,None,1000,9,3674477,336,191.285
C,7,3484472,vowelstep7.wav,None,1000,9,3676478,336,193.285
C,7,3484472,vowelstep7_catch.wav,2,432,9,3678478,335,195.285
C,7,3484472,vowelstep5_catch.wav,2,266,9,3680478,876,197.285
C,7,3484472,sinestep5.wav,None,1000,9,3682478,1059,199.285
C,7,3484472,sinestep3.wav,None,1000,9,3684478,323,201.285
C,7,3484472,vowelstep3_catch.wav,2,447,9,3686478,326,203.285
C,7,3484472,vowelstep1_catch.wav,2,118,9,3688478,880,205.285
C,7,3484472,vowelstep5.wav,None,1000,9,3690478,1213,207.285
C,7,3484472,vowelstep1.wav,None,1000,9,3692479,333,209.285
C,7,3484472,sinestep1_catch.wav,2,782,9,3694479,344,211.285
C,7,3484472,sinestep3_catch.wav,2,171,9,3696478,539,213.285
C,7,3484472,sinestep1.wav,None,1000,9,3698478,1148,215.285
C,7,3484472,vowelstep3.wav,None,1000,9,3700478,323,217.285
C,7,3484472,sinestep3.wav,None,1000,9,3702478,334,219.285
C,7,3484472,vowelstep5.wav,None,1000,9,3704478,336,221.285
C,7,3484472,sinestep7.wav,None,1000,9,3706478,345,223.285
C,7,3484472,sinestep1.wav,None,1000,9,3708478,314,225.285
C,7,3484472,sinestep5_catch.wav,2,309,9,3710479,321,227.285
C,7,3484472,vowelstep7.wav,None,1000,9,3712479,1029,229.285
C,7,3484472,vowelstep3.wav,None,1000,9,3714479,350,231.285
C,7,3484472,silence.wav,None,1000,9,3716479,333,233.285
C,7,3484472,vowelstep1.wav,None,1000,9,3718479,332,235.285
C,7,3484472,sinestep5.wav,None,1000,9,3720478,333,237.285
C,7,3484472,sinestep1.wav,None,1000,9,3722478,342,239.285
C,7,3484472,vowelstep7.wav,None,1000,9,3724478,342,241.285
C,7,3484472,sinestep3.wav,None,1000,9,3726478,342,243.285
C,7,3484472,sinestep3.wav,None,1000,9,3728479,352,245.285
C,7,3484472,sinestep5.wav,None,1000,9,3730479,332,247.285
C,7,3484472,vowelstep3.wav,None,1000,9,3732479,332,249.285
C,7,3484472,sinestep3.wav,None,1000,9,3734479,331,251.285
C,7,3484472,silence.wav,None,1000,9,3736479,342,253.285
C,7,3484472,sinestep3.wav,None,1000,9,3738479,341,255.285
C,7,3484472,vowelstep1.wav,None,1000,9,3740479,343,257.285
C,7,3484472,silence.wav,None,1000,9,3742479,342,259.285
C,7,3484472,vowelstep1.wav,None,1000,9,3744478,320,261.285
C,7,3484472,silence.wav,None,1000,9,3746479,332,263.285
C,7,3484472,sinestep7.wav,None,1000,9,3748479,330,265.285
C,7,3484472,sinestep3.wav,None,1000,9,3750479,341,267.285
C,7,3484472,vowelstep1.wav,None,1000,9,3752479,340,269.285
C,7,3484472,sinestep7.wav,None,1000,9,3754479,339,271.285
C,7,3484472,sinestep7_catch.wav,2,158,9,3756479,340,273.285
C,7,3484472,vowelstep5.wav,None,1000,9,3758479,1170,275.285
C,7,3484472,silence.wav,None,1000,9,3760479,330,277.285
C,7,3484472,silence.wav,None,1000,9,3762480,326,279.285
C,7,3484472,sinestep3.wav,None,1000,9,3764480,331,281.285
C,7,3484472,vowelstep7.wav,None,1000,9,3766480,339,283.285
C,7,3484472,sinestep5.wav,None,1000,9,3768479,339,285.285
C,7,3484472,sinestep5.wav,None,1000,9,3770479,339,287.285
C,7,3484472,vowelstep3.wav,None,1000,9,3772479,319,289.285
C,7,3484472,sinestep3.wav,None,1000,9,3774479,329,291.285
C,7,3484472,silence.wav,None,1000,9,3776479,330,293.285
C,7,3484472,silence.wav,None,1000,9,3778479,328,295.285
C,7,3484472,vowelstep7.wav,None,1000,9,3780480,339,297.285
C,7,3484472,silence.wav,None,1000,9,3782480,339,299.285
C,7,3484472,vowelstep5.wav,None,1000,9,3784480,338,301.285
C,7,3484472,sinestep5.wav,None,1000,9,3786480,329,303.285
C,7,3484472,silence.wav,None,1000,9,3788480,328,305.285
C,7,3484472,silence.wav,None,1000,9,3790480,328,307.285
C,7,3484472,silence.wav,None,1000,9,3792479,328,309.285
C,7,3484472,sinestep7_catch.wav,2,215,9,3794479,338,311.285
C,7,3484472,sinestep7.wav,None,1000,9,3796479,1121,313.285
C,7,3484472,sinestep5_catch.wav,2,218,9,3798480,349,315.285
C,7,3484472,sinestep5.wav,None,1000,9,3800480,1127,317.285
C,7,3484472,sinestep3_catch.wav,2,415,9,3802480,328,319.285
F,8,3863074,sinestep1.wav,None,1000,9,3863081,0,1.285
F,8,3863074,vowelstep5.wav,None,1000,9,3865080,326,3.285
F,8,3863074,vowelstep3.wav,None,1000,9,3867080,333,5.285
F,8,3863074,sinestep5.wav,None,1000,9,3869081,334,7.285
F,8,3863074,vowelstep7.wav,None,1000,9,3871081,336,9.285
F,8,3863074,silence.wav,None,1000,9,3873081,333,11.285
F,8,3863074,vowelstep5.wav,None,1000,9,3875081,348,13.285
F,8,3863074,sinestep3.wav,None,1000,9,3877081,325,15.285
F,8,3863074,sinestep3.wav,None,1000,9,3879081,325,17.285
F,8,3863074,silence.wav,None,1000,9,3881081,328,19.285
F,8,3863074,vowelstep7.wav,None,1000,9,3883081,335,21.285
F,8,3863074,vowelstep7.wav,None,1000,9,3885082,332,23.285
F,8,3863074,vowelstep1_catch.wav,2,84,9,3887082,314,25.285
F,8,3863074,vowelstep3_catch.wav,2,216,9,3889082,1228,27.285
F,8,3863074,vowelstep1.wav,None,1000,9,3891081,1103,29.285
F,8,3863074,sinestep5.wav,None,1000,9,3893081,322,31.285
F,8,3863074,sinestep5.wav,None,1000,9,3895081,334,33.285
F,8,3863074,vowelstep7.wav,None,1000,9,3897081,335,35.285
F,8,3863074,sinestep3.wav,None,1000,9,3899081,333,37.285
F,8,3863074,sinestep7.wav,None,1000,9,3901081,334,39.285
F,8,3863074,vowelstep5_catch.wav,2,634,9,3903082,323,41.285
F,8,3863074,sinestep1.wav,None,1000,9,3905082,688,43.285
F,8,3863074,vowelstep7_catch.wav,2,127,9,3907082,323,45.285
F,8,3863074,vowelstep3.wav,None,1000,9,3909082,1193,47.285
F,8,3863074,sinestep1.wav,None,1000,9,3911082,333,49.285
F,8,3863074,sinestep7.wav,None,1000,9,3913082,333,51.285
F,8,3863074,silence.wav,None,1000,9,3915081,333,53.285
F,8,3863074,sinestep7.wav,None,1000,9,3917081,324,55.285
F,8,3863074,vowelstep1.wav,None,1000,9,3919081,322,57.285
F,8,3863074,vowelstep3.wav,None,1000,9,3921082,323,59.285
F,8,3863074,vowelstep7_catch.wav,2,436,9,3923082,333,61.285
F,8,3863074,sinestep5.wav,None,1000,9,3925082,892,63.285
F,8,3863074,sinestep3.wav,None,1000,9,3927082,333,65.285
F,8,3863074,vowelstep3.wav,None,1000,9,3929082,331,67.285
F,8,3863074,silence.wav,None,1000,9,3931082,309,69.285
F,8,3863074,vowelstep1.wav,None,1000,9,3933082,322,71.285
F,8,3863074,vowelstep1.wav,None,1000,9,3935082,322,73.285
F,8,3863074,vowelstep5_catch.wav,None,1000,9,3937082,322,75.285
F,8,3863074,silence.wav,None,1000,9,3939082,331,77.285
F,8,3863074,vowelstep3.wav,None,1000,9,3941082,331,79.285
F,8,3863074,vowelstep5.wav,None,1000,9,3943082,330,81.285
F,8,3863074,vowelstep3_catch.wav,None,1000,9,3945082,340,83.285
F,8,3863074,vowelstep3.wav,None,1000,9,3947082,321,85.285
F,8,3863074,sinestep7.wav,None,1000,9,3949082,318,87.285
F,8,3863074,vowelstep1.wav,None,1000,9,3951082,321,89.285
F,8,3863074,sinestep1.wav,None,1000,9,3953082,329,91.285
F,8,3863074,vowelstep1_catch.wav,2,77,9,3955083,330,93.285
F,8,3863074,vowelstep5.wav,None,1000,9,3957083,1251,95.285
F,8,3863074,sinestep7.wav,None,1000,9,3959083,338,97.285
F,8,3863074,vowelstep7.wav,None,1000,9,3961083,320,99.285
F,8,3863074,vowelstep3.wav,None,1000,9,3963082,340,101.285
F,8,3863074,sinestep3.wav,None,1000,9,3965082,349,103.285
F,8,3863074,silence.wav,None,1000,9,3967082,329,105.285
F,8,3863074,sinestep1.wav,None,1000,9,3969082,331,107.285
F,8,3863074,sinestep1.wav,None,1000,9,3971082,329,109.285
F,8,3863074,silence.wav,None,1000,9,3973083,339,111.285
F,8,3863074,sinestep7.wav,None,1000,9,3975083,340,113.285
F,8,3863074,vowelstep3.wav,None,1000,9,3977083,339,115.285
F,8,3863074,sinestep3.wav,None,1000,9,3979083,348,117.285
F,8,3863074,vowelstep3.wav,None,1000,9,3981083,329,119.285
F,8,3863074,vowelstep7.wav,None,1000,9,3983083,330,121.285
F,8,3863074,vowelstep7.wav,None,1000,9,3985083,329,123.285
F,8,3863074,vowelstep5.wav,None,1000,9,3987082,338,125.285
F,8,3863074,sinestep1.wav,None,1000,9,3989082,339,127.285
F,8,3863074,silence.wav,None,1000,9,3991083,339,129.285
F,8,3863074,sinestep1.wav,None,1000,9,3993083,337,131.285
F,8,3863074,sinestep3.wav,None,1000,9,3995083,328,133.285
F,8,3863074,sinestep1_catch.wav,None,1000,9,3997083,328,135.285
F,8,3863074,sinestep3.wav,None,1000,9,3999083,328,137.285
F,8,3863074,sinestep3.wav,None,1000,9,4001083,325,139.285
F,8,3863074,silence.wav,None,1000,9,4003083,338,141.285
F,8,3863074,silence.wav,None,1000,9,4005083,338,143.285
F,8,3863074,sinestep7.wav,None,1000,9,4007083,347,145.285
F,8,3863074,sinestep5.wav,None,1000,9,4009084,345,147.285
F,8,3863074,vowelstep1.wav,None,1000,9,4011083,327,149.285
F,8,3863074,sinestep7.wav,None,1000,9,4013083,324,151.285
F,8,3863074,silence.wav,None,1000,9,4015083,329,153.285
F,8,3863074,sinestep3_catch.wav,2,36,9,4017083,335,155.285
F,8,3863074,vowelstep5.wav,None,1000,9,4019083,1299,157.285
F,8,3863074,sinestep3.wav,None,1000,9,4021083,346,159.285
F,8,3863074,vowelstep5.wav,None,1000,9,4023083,315,161.285
F,8,3863074,sinestep3.wav,None,1000,9,4025084,324,163.285
F,8,3863074,vowelstep3.wav,None,1000,9,4027084,325,165.285
F,8,3863074,vowelstep1.wav,None,1000,9,4029084,325,167.285
F,8,3863074,sinestep5.wav,None,1000,9,4031084,335,169.285
F,8,3863074,vowelstep5.wav,None,1000,9,4033084,335,171.285
F,8,3863074,vowelstep1.wav,None,1000,9,4035083,334,173.285
F,8,3863074,vowelstep1.wav,None,1000,9,4037083,345,175.285
F,8,3863074,sinestep7.wav,None,1000,9,4039083,325,177.285
F,8,3863074,vowelstep1.wav,None,1000,9,4041083,326,179.285
F,8,3863074,sinestep5.wav,None,1000,9,4043084,325,181.285
F,8,3863074,vowelstep7.wav,None,1000,9,4045084,332,183.285
F,8,3863074,sinestep1.wav,None,1000,9,4047084,336,185.285
F,8,3863074,vowelstep7.wav,None,1000,9,4049084,334,187.285
F,8,3863074,sinestep5.wav,None,1000,9,4051084,314,189.285
F,8,3863074,vowelstep5.wav,None,1000,9,4053084,324,191.285
F,8,3863074,silence.wav,None,1000,9,4055084,321,193.285
F,8,3863074,sinestep7.wav,None,1000,9,4057084,324,195.285
F,8,3863074,vowelstep5.wav,None,1000,9,4059084,330,197.285
F,8,3863074,vowelstep7.wav,None,1000,9,4061084,334,199.285
F,8,3863074,silence.wav,None,1000,9,4063084,332,201.285
F,8,3863074,vowelstep1.wav,None,1000,9,4065084,345,203.285
F,8,3863074,vowelstep7.wav,None,1000,9,4067084,322,205.285
F,8,3863074,vowelstep7.wav,None,1000,9,4069084,321,207.285
F,8,3863074,vowelstep3.wav,None,1000,9,4071084,323,209.285
F,8,3863074,vowelstep3.wav,None,1000,9,4073084,333,211.285
F,8,3863074,silence.wav,None,1000,9,4075084,333,213.285
F,8,3863074,sinestep7.wav,None,1000,9,4077084,330,215.285
F,8,3863074,sinestep1.wav,None,1000,9,4079085,342,217.285
F,8,3863074,silence.wav,None,1000,9,4081085,322,219.285
F,8,3863074,vowelstep1.wav,None,1000,9,4083084,323,221.285
F,8,3863074,sinestep5_catch.wav,2,653,9,4085084,317,223.285
F,8,3863074,sinestep1.wav,None,1000,9,4087084,680,225.285
F,8,3863074,silence.wav,None,1000,9,4089084,329,227.285
F,8,3863074,sinestep7.wav,None,1000,9,4091084,333,229.285
F,8,3863074,sinestep7.wav,None,1000,9,4093084,328,231.285
F,8,3863074,silence.wav,None,1000,9,4095085,307,233.285
F,8,3863074,vowelstep5.wav,None,1000,9,4097085,320,235.285
F,8,3863074,sinestep7.wav,None,1000,9,4099085,321,237.285
F,8,3863074,sinestep5.wav,None,1000,9,4101085,332,239.285
F,8,3863074,sinestep5.wav,None,1000,9,4103085,332,241.285
F,8,3863074,silence.wav,None,1000,9,4105085,331,243.285
F,8,3863074,vowelstep3.wav,None,1000,9,4107085,331,245.285
F,8,3863074,vowelstep3.wav,None,1000,9,4109084,321,247.285
F,8,3863074,silence.wav,None,1000,9,4111084,320,249.285
F,8,3863074,sinestep1.wav,None,1000,9,4113085,321,251.285
F,8,3863074,sinestep1.wav,None,1000,9,4115085,320,253.285
F,8,3863074,vowelstep5.wav,None,1000,9,4117085,329,255.285
F,8,3863074,silence.wav,None,1000,9,4119085,332,257.285
F,8,3863074,sinestep5.wav,None,1000,9,4121085,330,259.285
F,8,3863074,sinestep5.wav,None,1000,9,4123085,321,261.285
F,8,3863074,sinestep5.wav,None,1000,9,4125085,321,263.285
F,8,3863074,sinestep7.wav,None,1000,9,4127085,322,265.285
F,8,3863074,sinestep7_catch.wav,2,338,9,4129085,321,267.285
F,8,3863074,sinestep7_catch.wav,2,115,9,4131086,990,269.285
F,8,3863074,sinestep1.wav,None,1000,9,4133085,1210,271.285
F,8,3863074,vowelstep7.wav,None,1000,9,4135085,329,273.285
F,8,3863074,sinestep3.wav,None,1000,9,4137085,320,275.285
F,8,3863074,sinestep3.wav,None,1000,9,4139085,316,277.285
F,8,3863074,silence.wav,None,1000,9,4141085,319,279.285
F,8,3863074,sinestep5_catch.wav,2,161,9,4143085,319,281.285
F,8,3863074,sinestep5.wav,None,1000,9,4145085,1169,283.285
F,8,3863074,silence.wav,None,1000,9,4147086,330,285.285
F,8,3863074,vowelstep5.wav,None,1000,9,4149086,338,287.285
F,8,3863074,silence.wav,None,1000,9,4151086,338,289.285
F,8,3863074,sinestep1.wav,None,1000,9,4153086,318,291.285
F,8,3863074,sinestep3.wav,None,1000,9,4155086,317,293.285
F,8,3863074,vowelstep3.wav,None,1000,9,4157085,316,295.285
F,8,3863074,silence.wav,None,1000,9,4159085,328,297.285
F,8,3863074,sinestep5.wav,None,1000,9,4161085,328,299.285
F,8,3863074,vowelstep5.wav,None,1000,9,4163085,328,301.285
F,8,3863074,vowelstep5.wav,None,1000,9,4165086,336,303.285
F,8,3863074,vowelstep1.wav,2,795,9,4167086,315,305.285
F,8,3863074,sinestep3.wav,None,1000,9,4169086,521,307.285
F,8,3863074,silence.wav,None,1000,9,4171086,318,309.285
F,8,3863074,sinestep3_catch.wav,2,250,9,4173086,328,311.285
F,8,3863074,vowelstep1.wav,None,1000,9,4175086,1072,313.285
F,8,3863074,vowelstep7.wav,None,1000,9,4177086,328,315.285
F,8,3863074,vowelstep7.wav,None,1000,9,4179086,337,317.285
F,8,3863074,vowelstep1.wav,None,1000,9,4181085,317,319.285
D,9,4239036,sinestep5.wav,None,1000,9,4239054,0,1.285
D,9,4239036,vowelstep1_catch.wav,2,78,9,4241054,322,3.285
D,9,4239036,sinestep7.wav,None,1000,9,4243054,1243,5.285
D,9,4239036,vowelstep3.wav,None,1000,9,4245053,336,7.285
D,9,4239036,vowelstep3_catch.wav,2,155,9,4247053,335,9.285
D,9,4239036,vowelstep5_catch.wav,2,202,9,4249053,1157,11.285
D,9,4239036,sinestep7.wav,None,1000,9,4251053,1112,13.285
D,9,4239036,silence.wav,None,1000,9,4253054,314,15.285
D,9,4239036,vowelstep7_catch.wav,2,102,9,4255054,321,17.285
D,9,4239036,vowelstep7.wav,None,1000,9,4257054,1222,19.285
D,9,4239036,vowelstep3.wav,None,1000,9,4259054,323,21.285
D,9,4239036,vowelstep7_catch.wav,2,115,9,4261054,298,23.285
D,9,4239036,vowelstep5.wav,None,1000,9,4263054,1197,25.285
D,9,4239036,sinestep7.wav,None,1000,9,4265054,312,27.285
D,9,4239036,silence.wav,None,1000,9,4267054,314,29.285
D,9,4239036,vowelstep1.wav,None,1000,9,4269053,323,31.285
D,9,4239036,vowelstep1.wav,None,1000,9,4271054,321,33.285
D,9,4239036,vowelstep7.wav,None,1000,9,4273054,322,35.285
D,9,4239036,vowelstep3.wav,None,1000,9,4275054,330,37.285
D,9,4239036,sinestep3.wav,None,1000,9,4277054,308,39.285
D,9,4239036,sinestep1.wav,None,1000,9,4279054,313,41.285
D,9,4239036,vowelstep1.wav,None,1000,9,4281054,311,43.285
D,9,4239036,vowelstep1.wav,None,1000,9,4283054,322,45.285
D,9,4239036,sinestep7.wav,None,1000,9,4285054,322,47.285
D,9,4239036,sinestep3.wav,None,1000,9,4287055,323,49.285
D,9,4239036,vowelstep5_catch.wav,2,159,9,4289055,301,51.285
D,9,4239036,sinestep7.wav,None,1000,9,4291055,1151,53.285
D,9,4239036,vowelstep5.wav,None,1000,9,4293055,310,55.285
D,9,4239036,sinestep3.wav,None,1000,9,4295054,312,57.285
D,9,4239036,sinestep7.wav,None,1000,9,4297054,322,59.285
D,9,4239036,vowelstep3.wav,None,1000,9,4299054,322,61.285
D,9,4239036,vowelstep3.wav,None,1000,9,4301054,318,63.285
D,9,4239036,vowelstep3_catch.wav,2,64,9,4303054,320,65.285
D,9,4239036,silence.wav,None,1000,9,4305055,1245,67.285
D,9,4239036,vowelstep7.wav,None,1000,9,4307055,312,69.285
D,9,4239036,silence.wav,None,1000,9,4309055,311,71.285
D,9,4239036,sinestep1.wav,None,1000,9,4311055,319,73.285
D,9,4239036,vowelstep5.wav,None,1000,9,4313055,320,75.285
D,9,4239036,vowelstep1.wav,None,1000,9,4315055,320,77.285
D,9,4239036,sinestep7.wav,None,1000,9,4317055,326,79.285
D,9,4239036,vowelstep1.wav,None,1000,9,4319054,310,81.285
D,9,4239036,sinestep7.wav,None,1000,9,4321054,311,83.285
D,9,4239036,vowelstep7.wav,None,1000,9,4323055,306,85.285
D,9,4239036,vowelstep5.wav,None,1000,9,4325055,320,87.285
D,9,4239036,vowelstep1.wav,None,1000,9,4327055,318,89.285
D,9,4239036,sinestep5.wav,None,1000,9,4329055,319,91.285
D,9,4239036,sinestep5.wav,None,1000,9,4331055,300,93.285
D,9,4239036,vowelstep3.wav,None,1000,9,4333055,307,95.285
D,9,4239036,silence.wav,None,1000,9,4335055,309,97.285
D,9,4239036,sinestep1.wav,None,1000,9,4337055,310,99.285
D,9,4239036,sinestep1.wav,None,1000,9,4339055,310,101.285
D,9,4239036,sinestep3.wav,None,1000,9,4341056,319,103.285
D,9,4239036,vowelstep1.wav,None,1000,9,4343055,318,105.285
D,9,4239036,sinestep7.wav,None,1000,9,4345039,318,107.285
D,9,4239036,vowelstep3.wav,None,1000,9,4347055,327,109.285
D,9,4239036,silence.wav,None,1000,9,4349055,308,111.285
D,9,4239036,vowelstep5.wav,None,1000,9,4351055,338,113.285
D,9,4239036,vowelstep1.wav,None,1000,9,4353055,309,115.285
D,9,4239036,vowelstep1_catch.wav,2,66,9,4355055,319,117.285
D,9,4239036,vowelstep7.wav,None,1000,9,4357056,1251,119.285
D,9,4239036,sinestep5.wav,None,1000,9,4359056,317,121.285
D,9,4239036,vowelstep7.wav,None,1000,9,4361039,305,123.285
D,9,4239036,sinestep1.wav,None,1000,9,4363056,322,125.285
D,9,4239036,sinestep1.wav,None,1000,9,4365039,302,127.285
D,9,4239036,vowelstep3.wav,None,1000,9,4367055,337,129.285
D,9,4239036,sinestep1.wav,None,1000,9,4369055,318,131.285
D,9,4239036,silence.wav,None,1000,9,4371055,317,133.285
D,9,4239036,sinestep3.wav,None,1000,9,4373055,316,135.285
D,9,4239036,silence.wav,None,1000,9,4375056,323,137.285
D,9,4239036,vowelstep3.wav,None,1000,9,4377039,323,139.285
D,9,4239036,vowelstep5.wav,None,1000,9,4379039,336,141.285
D,9,4239036,silence.wav,None,1000,9,4381039,335,143.285
D,9,4239036,sinestep5.wav,None,1000,9,4383039,334,145.285
D,9,4239036,sinestep5.wav,None,1000,9,4385056,337,147.285
D,9,4239036,sinestep1.wav,None,1000,9,4387056,324,149.285
D,9,4239036,vowelstep5.wav,None,1000,9,4389056,324,151.285
D,9,4239036,vowelstep5.wav,None,1000,9,4391055,324,153.285
D,9,4239036,sinestep1_catch.wav,2,88,9,4393040,323,155.285
D,9,4239036,sinestep5.wav,None,1000,9,4395040,1247,157.285
D,9,4239036,vowelstep3.wav,None,1000,9,4397040,336,159.285
D,9,4239036,vowelstep7.wav,None,1000,9,4399039,334,161.285
D,9,4239036,vowelstep3.wav,None,1000,9,4401039,345,163.285
D,9,4239036,sinestep3.wav,None,1000,9,4403056,322,165.285
D,9,4239036,sinestep1.wav,None,1000,9,4405056,322,167.285
D,9,4239036,silence.wav,None,1000,9,4407056,322,169.285
D,9,4239036,sinestep1.wav,None,1000,9,4409039,336,171.285
D,9,4239036,vowelstep1.wav,None,1000,9,4411040,330,173.285
D,9,4239036,vowelstep3.wav,None,1000,9,4413040,329,175.285
D,9,4239036,silence.wav,None,1000,9,4415040,314,177.285
D,9,4239036,sinestep7.wav,None,1000,9,4417040,322,179.285
D,9,4239036,silence.wav,None,1000,9,4419040,322,181.285
D,9,4239036,vowelstep7.wav,None,1000,9,4421040,322,183.285
D,9,4239036,sinestep3.wav,None,1000,9,4423056,330,185.285
D,9,4239036,vowelstep1.wav,None,1000,9,4425039,315,187.285
D,9,4239036,sinestep7.wav,None,1000,9,4427040,330,189.285
D,9,4239036,silence.wav,None,1000,9,4429040,329,191.285
D,9,4239036,sinestep1.wav,None,1000,9,4431040,319,193.285
D,9,4239036,sinestep3.wav,None,1000,9,4433040,323,195.285
D,9,4239036,sinestep5.wav,None,1000,9,4435040,321,197.285
D,9,4239036,vowelstep3.wav,None,1000,9,4437040,322,199.285
D,9,4239036,sinestep5.wav,None,1000,9,4439040,333,201.285
D,9,4239036,sinestep5.wav,None,1000,9,4441040,334,203.285
D,9,4239036,sinestep3.wav,None,1000,9,4443040,342,205.285
D,9,4239036,sinestep3.wav,None,1000,9,4445041,340,207.285
D,9,4239036,sinestep5.wav,None,1000,9,4447040,320,209.285
D,9,4239036,sinestep3_catch.wav,2,428,9,4449040,342,211.285
D,9,4239036,vowelstep7.wav,None,1000,9,4451040,896,213.285
D,9,4239036,sinestep1.wav,None,1000,9,4453040,328,215.285
D,9,4239036,sinestep7.wav,None,1000,9,4455040,327,217.285
D,9,4239036,vowelstep1.wav,None,1000,9,4457040,340,219.285
D,9,4239036,sinestep5.wav,None,1000,9,4459040,342,221.285
D,9,4239036,silence.wav,None,1000,9,4461040,342,223.285
D,9,4239036,sinestep5_catch.wav,2,93,9,4463041,350,225.285
D,9,4239036,sinestep5.wav,None,1000,9,4465041,1234,227.285
D,9,4239036,silence.wav,None,1000,9,4467041,328,229.285
D,9,4239036,vowelstep7.wav,None,1000,9,4469041,327,231.285
D,9,4239036,sinestep3.wav,None,1000,9,4471040,341,233.285
D,9,4239036,vowelstep5.wav,None,1000,9,4473040,341,235.285
D,9,4239036,vowelstep7.wav,None,1000,9,4475040,341,237.285
D,9,4239036,vowelstep5.wav,None,1000,9,4477040,340,239.285
D,9,4239036,silence.wav,None,1000,9,4479040,327,241.285
D,9,4239036,silence.wav,None,1000,9,4481041,327,243.285
D,9,4239036,silence.wav,None,1000,9,4483041,326,245.285
D,9,4239036,sinestep7.wav,None,1000,9,4485041,327,247.285
D,9,4239036,sinestep5.wav,None,1000,9,4487041,340,249.285
D,9,4239036,sinestep7_catch.wav,2,115,9,4489041,340,251.285
D,9,4239036,vowelstep1.wav,None,1000,9,4491041,1224,253.285
D,9,4239036,vowelstep1.wav,None,1000,9,4493041,347,255.285
D,9,4239036,vowelstep3.wav,None,1000,9,4495040,328,257.285
D,9,4239036,silence.wav,None,1000,9,4497041,325,259.285
D,9,4239036,sinestep5.wav,None,1000,9,4499041,326,261.285
D,9,4239036,vowelstep7.wav,None,1000,9,4501041,339,263.285
D,9,4239036,vowelstep3.wav,None,1000,9,4503041,336,265.285
D,9,4239036,vowelstep7.wav,None,1000,9,4505041,339,267.285
D,9,4239036,vowelstep5.wav,None,1000,9,4507041,319,269.285
D,9,4239036,sinestep1.wav,None,1000,9,4509041,325,271.285
D,9,4239036,sinestep7.wav,None,1000,9,4511041,326,273.285
D,9,4239036,sinestep3.wav,None,1000,9,4513041,325,275.285
D,9,4239036,silence.wav,None,1000,9,4515042,333,277.285
D,9,4239036,sinestep7.wav,None,1000,9,4517042,339,279.285
D,9,4239036,vowelstep5.wav,None,1000,9,4519041,337,281.285
D,9,4239036,sinestep1.wav,None,1000,9,4521041,349,283.285
D,9,4239036,vowelstep1.wav,None,1000,9,4523041,325,285.285
D,9,4239036,sinestep1.wav,None,1000,9,4525041,324,287.285
D,9,4239036,vowelstep5.wav,None,1000,9,4527041,325,289.285
D,9,4239036,silence.wav,None,1000,9,4529041,339,291.285
D,9,4239036,sinestep3.wav,None,1000,9,4531041,337,293.285
D,9,4239036,vowelstep5.wav,None,1000,9,4533042,337,295.285
D,9,4239036,silence.wav,None,1000,9,4535042,347,297.285
D,9,4239036,sinestep3.wav,None,1000,9,4537042,324,299.285
D,9,4239036,vowelstep7.wav,None,1000,9,4539042,326,301.285
D,9,4239036,sinestep7_catch.wav,2,221,9,4541042,323,303.285
D,9,4239036,sinestep5_catch.wav,2,190,9,4543042,1112,305.285
D,9,4239036,sinestep3.wav,None,1000,9,4545041,1145,307.285
D,9,4239036,vowelstep5.wav,None,1000,9,4547041,336,309.285
D,9,4239036,silence.wav,None,1000,9,4549041,336,311.285
D,9,4239036,sinestep3_catch.wav,2,239,9,4551042,325,313.285
D,9,4239036,silence.wav,None,1000,9,4553042,1084,315.285
D,9,4239036,vowelstep7.wav,None,1000,9,4555042,325,317.285
D,9,4239036,silence.wav,None,1000,9,4557042,334,319.285