block,count_main_sequence,first_trial_timestamp,fname,response_catch_response,response_time_catch_response,subject_nr,time_stimulus,time_to_pad,timing
P,NA,260647,vowelstep1_catch.wav,None,1000,10,260658,0,
P,NA,260647,sinestep7_catch.wav,1,235,10,262659,448,
P,NA,260647,vowelstep5_catch.wav,1,109,10,264659,1213,
P,NA,260647,sinestep7.wav,1,200,10,266659,1350,
P,NA,260647,sinestep7.wav,1,162,10,268659,1228,
P,NA,260647,sinestep3.wav,1,254,10,270659,1277,
P,NA,260647,sinestep1.wav,1,461,10,272659,1184,
P,NA,260647,vowelstep7.wav,1,492,10,274658,986,
P,NA,260647,vowelstep3.wav,1,463,10,276658,954,
P,NA,260647,silence.wav,None,1000,10,278658,986,
P,NA,260647,sinestep1.wav,1,253,10,280659,449,
P,NA,260647,vowelstep1.wav,1,287,10,282659,1184,
P,NA,260647,sinestep5.wav,1,305,10,284659,1151,
P,NA,260647,sinestep1.wav,1,410,10,286659,1133,
P,NA,260647,sinestep1.wav,1,201,10,288659,1028,
P,NA,260647,vowelstep1.wav,1,331,10,290659,1246,
P,NA,260647,silence.wav,None,1000,10,292659,1117,
P,NA,260647,silence.wav,None,1000,10,294659,448,
P,NA,260647,silence.wav,None,1000,10,296659,455,
P,NA,260647,sinestep3_catch.wav,1,541,10,298660,438,
P,NA,260647,vowelstep7.wav,1,336,10,300659,896,
P,NA,260647,silence.wav,None,1000,10,302659,1100,
P,NA,260647,vowelstep7.wav,1,138,10,304659,445,
P,NA,260647,vowelstep3.wav,1,353,10,306659,1308,
P,NA,260647,silence.wav,None,1000,10,308659,1093,
P,NA,260647,vowelstep1.wav,1,296,10,310659,427,
P,NA,260647,sinestep3.wav,1,304,10,312659,1140,
P,NA,260647,vowelstep1.wav,1,355,10,314660,1133,
P,NA,260647,silence.wav,None,1000,10,316660,1080,
P,NA,260647,sinestep7.wav,1,203,10,318660,445,
P,NA,260647,sinestep5_catch.wav,1,451,10,320660,1242,
P,NA,260647,silence.wav,None,1000,10,322660,994,
P,NA,260647,sinestep7.wav,1,254,10,324659,455,
P,NA,260647,sinestep5.wav,1,445,10,326659,1181,
P,NA,260647,sinestep3.wav,1,929,10,328659,991,
P,NA,260647,sinestep1_catch.wav,1,930,10,330659,507,
P,NA,260647,vowelstep3_catch.wav,1,288,10,332660,515,
P,NA,260647,vowelstep5_catch.wav,1,88,10,334660,1156,
P,NA,260647,vowelstep7.wav,1,137,10,336660,1357,
P,NA,260647,silence.wav,None,1000,10,338660,1287,
P,NA,260647,vowelstep7_catch.wav,1,159,10,340660,435,
P,NA,260647,vowelstep3.wav,1,227,10,342660,1275,
P,NA,260647,silence.wav,None,1000,10,344660,1207,
P,NA,260647,sinestep7_catch.wav,1,319,10,346660,445,
P,NA,260647,sinestep7.wav,1,174,10,348659,1125,
P,NA,260647,vowelstep5.wav,1,278,10,350660,1270,
P,NA,260647,vowelstep3.wav,1,160,10,352660,1174,
P,NA,260647,sinestep5.wav,1,116,10,354660,1273,
P,NA,260647,sinestep5_catch.wav,1,60,10,356660,1317,
P,NA,260647,sinestep3.wav,1,55,10,358660,1370,
P,NA,260647,silence.wav,None,1000,10,360660,1388,
P,NA,260647,vowelstep7.wav,1,133,10,362660,445,
P,NA,260647,sinestep3_catch.wav,1,71,10,364660,1310,
P,NA,260647,vowelstep5.wav,1,45,10,366660,1382,
P,NA,260647,silence.wav,None,1000,10,368661,1407,
P,NA,260647,sinestep1.wav,1,59,10,370661,433,
P,NA,260647,vowelstep1.wav,1,192,10,372660,1373,
P,NA,260647,silence.wav,None,1000,10,374660,1240,
P,NA,260647,silence.wav,None,1000,10,376660,443,
P,NA,260647,silence.wav,None,1000,10,378660,442,
P,NA,260647,sinestep1_catch.wav,None,1000,10,380660,443,
P,NA,260647,sinestep1.wav,1,94,10,382660,422,
P,NA,260647,silence.wav,None,1000,10,384661,1338,
P,NA,260647,vowelstep1_catch.wav,1,69,10,386661,432,
P,NA,260647,vowelstep5.wav,1,74,10,388661,1361,
P,NA,260647,sinestep5.wav,1,128,10,390661,1367,
P,NA,260647,vowelstep3.wav,1,195,10,392661,1313,
P,NA,260647,silence.wav,None,1000,10,394661,1247,
P,NA,260647,silence.wav,None,1000,10,396660,451,
P,NA,260647,sinestep7.wav,1,195,10,398660,432,
P,NA,260647,vowelstep5.wav,1,276,10,400660,1237,
P,NA,260647,silence.wav,None,1000,10,402661,1155,
P,NA,260647,vowelstep3_catch.wav,1,47,10,404661,440,
P,NA,260647,silence.wav,None,1000,10,406661,1394,
P,NA,260647,vowelstep5.wav,1,687,10,408661,450,
P,NA,260647,vowelstep5_catch.wav,1,256,10,410661,733,
P,NA,260647,vowelstep7_catch.wav,1,192,10,412661,1173,
P,NA,260647,sinestep3.wav,1,534,10,414661,1237,
P,NA,260647,vowelstep5.wav,1,661,10,416661,896,
P,NA,260647,vowelstep3.wav,1,312,10,418661,779,
P,NA,260647,silence.wav,None,1000,10,420661,1128,
P,NA,260647,sinestep3.wav,1,172,10,422661,440,
P,NA,260647,silence.wav,None,1000,10,424661,1277,
P,NA,260647,sinestep7_catch.wav,1,183,10,426661,429,
P,NA,260647,sinestep5_catch.wav,1,160,10,428661,1246,
P,NA,260647,sinestep5.wav,1,98,10,430661,1269,
P,NA,260647,sinestep5.wav,1,133,10,432661,1341,
P,NA,260647,vowelstep7.wav,1,141,10,434661,1305,
P,NA,260647,sinestep3_catch.wav,1,195,10,436662,1298,
P,NA,260647,vowelstep1.wav,1,261,10,438662,1253,
E,0,50344,vowelstep7.wav,None,1000,10,50352,0,1.285
E,0,50344,sinestep3.wav,None,1000,10,52353,336,3.285
E,0,50344,sinestep5.wav,None,1000,10,54353,343,5.285
E,0,50344,sinestep1.wav,None,1000,10,56353,342,7.285
E,0,50344,sinestep5.wav,None,1000,10,58353,354,9.285
E,0,50344,silence.wav,None,1000,10,60353,331,11.285
E,0,50344,vowelstep1.wav,None,1000,10,62353,333,13.285
E,0,50344,vowelstep7.wav,None,1000,10,64353,334,15.285
E,0,50344,vowelstep1.wav,None,1000,10,66353,334,17.285
E,0,50344,sinestep1_catch.wav,1,179,10,68353,344,19.285
E,0,50344,vowelstep5.wav,None,1000,10,70354,1164,21.285
E,0,50344,sinestep5.wav,None,1000,10,72353,352,23.285
E,0,50344,vowelstep5.wav,None,1000,10,74353,343,25.285
E,0,50344,vowelstep3.wav,None,1000,10,76353,351,27.285
E,0,50344,sinestep1.wav,None,1000,10,78353,353,29.285
E,0,50344,vowelstep5.wav,None,1000,10,80353,344,31.285
E,0,50344,silence.wav,None,1000,10,82353,343,33.285
E,0,50344,silence.wav,None,1000,10,84353,344,35.285
E,0,50344,sinestep3.wav,None,1000,10,86353,353,37.285
E,0,50344,sinestep3.wav,None,1000,10,88354,352,39.285
E,0,50344,sinestep3.wav,None,1000,10,90354,352,41.285
E,0,50344,sinestep1.wav,None,1000,10,92354,348,43.285
E,0,50344,vowelstep1.wav,None,1000,10,94354,342,45.285
E,0,50344,sinestep1.wav,None,1000,10,96353,325,47.285
E,0,50344,vowelstep7.wav,None,1000,10,98353,342,49.285
E,0,50344,vowelstep5.wav,None,1000,10,100353,337,51.285
E,0,50344,sinestep7.wav,None,1000,10,102353,352,53.285
E,0,50344,sinestep1.wav,None,1000,10,104353,351,55.285
E,0,50344,vowelstep5.wav,None,1000,10,106354,350,57.285
E,0,50344,sinestep3.wav,None,1000,10,108354,338,59.285
E,0,50344,vowelstep1.wav,None,1000,10,110354,341,61.285
E,0,50344,vowelstep5.wav,None,1000,10,112354,340,63.285
E,0,50344,vowelstep3.wav,None,1000,10,114354,351,65.285
E,0,50344,sinestep1.wav,None,1000,10,116354,350,67.285
E,0,50344,vowelstep3.wav,None,1000,10,118354,350,69.285
E,0,50344,silence.wav,None,1000,10,120353,345,71.285
E,0,50344,vowelstep3.wav,None,1000,10,122354,339,73.285
E,0,50344,sinestep3_catch.wav,1,133,10,124354,339,75.285
E,0,50344,sinestep3.wav,None,1000,10,126354,1205,77.285
E,0,50344,vowelstep3.wav,None,1000,10,128354,340,79.285
E,0,50344,vowelstep7.wav,None,1000,10,130354,350,81.285
E,0,50344,silence.wav,None,1000,10,132354,349,83.285
E,0,50344,sinestep3.wav,None,1000,10,134354,349,85.285
E,0,50344,silence.wav,None,1000,10,136354,331,87.285
E,0,50344,sinestep1.wav,None,1000,10,138354,339,89.285
E,0,50344,sinestep5_catch.wav,1,266,10,140355,340,91.285
E,0,50344,vowelstep3.wav,None,1000,10,142355,1071,93.285
E,0,50344,sinestep5.wav,None,1000,10,144355,349,95.285
E,0,50344,vowelstep7.wav,None,1000,10,146354,349,97.285
E,0,50344,sinestep1.wav,None,1000,10,148354,349,99.285
E,0,50344,sinestep5.wav,None,1000,10,150354,328,101.285
E,0,50344,sinestep5.wav,None,1000,10,152354,338,103.285
E,0,50344,vowelstep7.wav,None,1000,10,154354,338,105.285
E,0,50344,vowelstep3.wav,None,1000,10,156354,336,107.285
E,0,50344,vowelstep7.wav,None,1000,10,158355,348,109.285
E,0,50344,sinestep5.wav,None,1000,10,160355,348,111.285
E,0,50344,vowelstep3.wav,None,1000,10,162355,347,113.285
E,0,50344,vowelstep7.wav,None,1000,10,164355,357,115.285
E,0,50344,sinestep3.wav,None,1000,10,166355,335,117.285
E,0,50344,vowelstep7.wav,None,1000,10,168354,337,119.285
E,0,50344,silence.wav,None,1000,10,170354,334,121.285
E,0,50344,silence.wav,None,1000,10,172354,348,123.285
E,0,50344,sinestep7.wav,None,1000,10,174354,347,125.285
E,0,50344,sinestep7_catch.wav,None,1000,10,176355,347,127.285
E,0,50344,sinestep7.wav,None,1000,10,178355,357,129.285
E,0,50344,silence.wav,None,1000,10,180355,322,131.285
E,0,50344,sinestep7_catch.wav,1,165,10,182355,337,133.285
E,0,50344,sinestep7.wav,None,1000,10,184355,1170,135.285
E,0,50344,sinestep5_catch.wav,1,10,10,186355,347,137.285
E,0,50344,sinestep1.wav,None,1000,10,188355,1334,139.285
E,0,50344,sinestep1.wav,None,1000,10,190355,346,141.285
E,0,50344,sinestep1.wav,None,1000,10,192356,314,143.285
E,0,50344,sinestep3.wav,None,1000,10,194355,331,145.285
E,0,50344,vowelstep5.wav,None,1000,10,196355,336,147.285
E,0,50344,silence.wav,None,1000,10,198355,336,149.285
E,0,50344,sinestep3_catch.wav,1,308,10,200355,345,151.285
E,0,50344,silence.wav,None,1000,10,202355,1037,153.285
E,0,50344,sinestep7.wav,None,1000,10,204355,346,155.285
E,0,50344,sinestep5.wav,None,1000,10,206355,356,157.285
E,0,50344,silence.wav,None,1000,10,208355,334,159.285
E,0,50344,vowelstep5.wav,None,1000,10,210356,335,161.285
E,0,50344,vowelstep1.wav,None,1000,10,212356,335,163.285
E,0,50344,vowelstep3.wav,None,1000,10,214356,345,165.285
E,0,50344,sinestep5.wav,None,1000,10,216356,345,167.285
E,0,50344,sinestep7.wav,None,1000,10,218355,344,169.285
E,0,50344,vowelstep1.wav,None,1000,10,220355,343,171.285
E,0,50344,vowelstep7.wav,None,1000,10,222355,334,173.285
E,0,50344,sinestep3.wav,None,1000,10,224355,334,175.285
E,0,50344,silence.wav,None,1000,10,226355,334,177.285
E,0,50344,sinestep1_catch.wav,1,319,10,228356,333,179.285
E,0,50344,sinestep7.wav,None,1000,10,230356,1023,181.285
E,0,50344,vowelstep1.wav,None,1000,10,232356,344,183.285
E,0,50344,sinestep5.wav,None,1000,10,234356,343,185.285
E,0,50344,sinestep5.wav,None,1000,10,236356,353,187.285
E,0,50344,vowelstep1.wav,None,1000,10,238356,334,189.285
E,0,50344,sinestep7.wav,None,1000,10,240356,330,191.285
E,0,50344,sinestep3.wav,None,1000,10,242355,333,193.285
E,0,50344,sinestep7.wav,None,1000,10,244356,344,195.285
E,0,50344,silence.wav,None,1000,10,246356,342,197.285
E,0,50344,vowelstep1.wav,None,1000,10,248356,352,199.285
E,0,50344,sinestep1.wav,None,1000,10,250356,323,201.285
E,0,50344,vowelstep1.wav,None,1000,10,252356,331,203.285
E,0,50344,vowelstep1.wav,None,1000,10,254356,330,205.285
E,0,50344,vowelstep1_catch.wav,1,166,10,256356,332,207.285
E,0,50344,vowelstep1.wav,None,1000,10,258356,1177,209.285
E,0,50344,vowelstep1.wav,None,1000,10,260356,342,211.285
E,0,50344,silence.wav,None,1000,10,262357,341,213.285
E,0,50344,sinestep7.wav,None,1000,10,264357,351,215.285
E,0,50344,vowelstep7.wav,None,1000,10,266356,331,217.285
E,0,50344,vowelstep3_catch.wav,1,198,10,268356,332,219.285
E,0,50344,vowelstep5.wav,None,1000,10,270356,1131,221.285
E,0,50344,sinestep3.wav,None,1000,10,272356,342,223.285
E,0,50344,silence.wav,None,1000,10,274356,342,225.285
E,0,50344,sinestep1.wav,None,1000,10,276356,342,227.285
E,0,50344,sinestep5.wav,None,1000,10,278356,322,229.285
E,0,50344,sinestep5.wav,None,1000,10,280357,331,231.285
E,0,50344,sinestep3.wav,None,1000,10,282357,329,233.285
E,0,50344,sinestep5.wav,None,1000,10,284357,329,235.285
E,0,50344,vowelstep3.wav,None,1000,10,286357,340,237.285
E,0,50344,sinestep7.wav,None,1000,10,288357,341,239.285
E,0,50344,sinestep7.wav,None,1000,10,290356,340,241.285
E,0,50344,silence.wav,None,1000,10,292356,350,243.285
E,0,50344,sinestep3.wav,None,1000,10,294356,329,245.285
E,0,50344,sinestep3.wav,None,1000,10,296356,330,247.285
E,0,50344,vowelstep3.wav,None,1000,10,298357,329,249.285
E,0,50344,silence.wav,None,1000,10,300357,339,251.285
E,0,50344,sinestep7.wav,None,1000,10,302357,339,253.285
E,0,50344,silence.wav,None,1000,10,304357,340,255.285
E,0,50344,vowelstep7.wav,None,1000,10,306357,350,257.285
E,0,50344,vowelstep3.wav,None,1000,10,308357,350,259.285
E,0,50344,silence.wav,None,1000,10,310357,330,261.285
E,0,50344,vowelstep3.wav,None,1000,10,312357,329,263.285
E,0,50344,vowelstep1.wav,None,1000,10,314357,339,265.285
E,0,50344,vowelstep5.wav,None,1000,10,316357,337,267.285
E,0,50344,silence.wav,None,1000,10,318357,338,269.285
E,0,50344,vowelstep3.wav,None,1000,10,320357,310,271.285
E,0,50344,sinestep1.wav,None,1000,10,322357,349,273.285
E,0,50344,vowelstep5_catch.wav,1,311,10,324357,349,275.285
E,0,50344,sinestep7.wav,None,1000,10,326357,1037,277.285
E,0,50344,sinestep7.wav,None,1000,10,328357,339,279.285
E,0,50344,vowelstep7.wav,None,1000,10,330357,338,281.285
E,0,50344,silence.wav,None,1000,10,332358,338,283.285
E,0,50344,sinestep5.wav,None,1000,10,334358,320,285.285
E,0,50344,silence.wav,None,1000,10,336358,347,287.285
E,0,50344,silence.wav,None,1000,10,338357,347,289.285
E,0,50344,vowelstep5.wav,None,1000,10,340357,358,291.285
E,0,50344,vowelstep5.wav,None,1000,10,342357,339,293.285
E,0,50344,silence.wav,None,1000,10,344357,337,295.285
E,0,50344,vowelstep5.wav,None,1000,10,346357,337,297.285
E,0,50344,vowelstep7_catch.wav,1,202,10,348357,334,299.285
E,0,50344,vowelstep7_catch.wav,1,151,10,350358,1145,301.285
E,0,50344,vowelstep5.wav,None,1000,10,352358,1195,303.285
E,0,50344,sinestep1.wav,None,1000,10,354358,344,305.285
E,0,50344,vowelstep3.wav,None,1000,10,356358,317,307.285
E,0,50344,vowelstep5_catch.wav,1,165,10,358358,335,309.285
E,0,50344,vowelstep7.wav,None,1000,10,360358,1171,311.285
E,0,50344,vowelstep5.wav,None,1000,10,362357,336,313.285
E,0,50344,vowelstep7.wav,None,1000,10,364357,346,315.285
E,0,50344,vowelstep1.wav,None,1000,10,366357,319,317.285
E,0,50344,vowelstep3_catch.wav,1,192,10,368358,355,319.285
D,1,1273927,sinestep5.wav,None,1000,10,1273941,0,1.285
D,1,1273927,vowelstep1_catch.wav,1,189,10,1275942,343,3.285
D,1,1273927,sinestep7.wav,None,1000,10,1277942,1153,5.285
D,1,1273927,vowelstep3.wav,None,1000,10,1279942,342,7.285
D,1,1273927,vowelstep3_catch.wav,1,7,10,1281942,343,9.285
D,1,1273927,vowelstep5_catch.wav,1,128,10,1283942,1325,11.285
D,1,1273927,sinestep7.wav,None,1000,10,1285942,1203,13.285
D,1,1273927,silence.wav,None,1000,10,1287941,332,15.285
D,1,1273927,vowelstep7_catch.wav,1,12,10,1289941,332,17.285
D,1,1273927,vowelstep7.wav,None,1000,10,1291941,1330,19.285
D,1,1273927,vowelstep3.wav,None,1000,10,1293942,342,21.285
D,1,1273927,vowelstep7_catch.wav,1,18,10,1295942,341,23.285
D,1,1273927,vowelstep5.wav,None,1000,10,1297942,1304,25.285
D,1,1273927,sinestep7.wav,None,1000,10,1299942,331,27.285
D,1,1273927,silence.wav,None,1000,10,1301942,331,29.285
D,1,1273927,vowelstep1.wav,1,26,10,1303942,341,31.285
D,1,1273927,vowelstep1.wav,None,1000,10,1305942,1314,33.285
D,1,1273927,vowelstep7.wav,None,1000,10,1307942,341,35.285
D,1,1273927,vowelstep3.wav,None,1000,10,1309942,341,37.285
D,1,1273927,sinestep3.wav,None,1000,10,1311942,331,39.285
D,1,1273927,sinestep1.wav,None,1000,10,1313942,330,41.285
D,1,1273927,vowelstep1.wav,None,1000,10,1315942,330,43.285
D,1,1273927,vowelstep1.wav,None,1000,10,1317942,331,45.285
D,1,1273927,sinestep7.wav,None,1000,10,1319942,341,47.285
D,1,1273927,sinestep3.wav,None,1000,10,1321942,341,49.285
D,1,1273927,vowelstep5_catch.wav,1,72,10,1323942,340,51.285
D,1,1273927,sinestep7.wav,None,1000,10,1325942,1278,53.285
D,1,1273927,vowelstep5.wav,None,1000,10,1327942,331,55.285
D,1,1273927,sinestep3.wav,None,1000,10,1329943,329,57.285
D,1,1273927,sinestep7.wav,None,1000,10,1331943,329,59.285
D,1,1273927,vowelstep3.wav,None,1000,10,1333943,341,61.285
D,1,1273927,vowelstep3.wav,None,1000,10,1335942,339,63.285
D,1,1273927,vowelstep3_catch.wav,None,1000,10,1337942,339,65.285
D,1,1273927,silence.wav,None,1000,10,1339942,319,67.285
D,1,1273927,vowelstep7.wav,None,1000,10,1341942,329,69.285
D,1,1273927,silence.wav,None,1000,10,1343942,330,71.285
D,1,1273927,sinestep1.wav,None,1000,10,1345943,329,73.285
D,1,1273927,vowelstep5.wav,None,1000,10,1347943,338,75.285
D,1,1273927,vowelstep1.wav,None,1000,10,1349943,338,77.285
D,1,1273927,sinestep7.wav,None,1000,10,1351943,338,79.285
D,1,1273927,vowelstep1.wav,None,1000,10,1353943,349,81.285
D,1,1273927,sinestep7.wav,None,1000,10,1355943,328,83.285
D,1,1273927,vowelstep7.wav,None,1000,10,1357943,328,85.285
D,1,1273927,vowelstep5.wav,None,1000,10,1359942,328,87.285
D,1,1273927,vowelstep1.wav,None,1000,10,1361942,338,89.285
D,1,1273927,sinestep5.wav,None,1000,10,1363943,338,91.285
D,1,1273927,sinestep5.wav,None,1000,10,1365943,337,93.285
D,1,1273927,vowelstep3.wav,None,1000,10,1367943,347,95.285
D,1,1273927,silence.wav,None,1000,10,1369943,327,97.285
D,1,1273927,sinestep1.wav,None,1000,10,1371943,327,99.285
D,1,1273927,sinestep1.wav,None,1000,10,1373943,327,101.285
D,1,1273927,sinestep3.wav,None,1000,10,1375943,337,103.285
D,1,1273927,vowelstep1.wav,None,1000,10,1377943,337,105.285
D,1,1273927,sinestep7.wav,None,1000,10,1379943,337,107.285
D,1,1273927,vowelstep3.wav,None,1000,10,1381944,337,109.285
D,1,1273927,silence.wav,None,1000,10,1383943,327,111.285
D,1,1273927,vowelstep5.wav,None,1000,10,1385943,325,113.285
D,1,1273927,vowelstep1.wav,None,1000,10,1387943,280,115.285
D,1,1273927,vowelstep1_catch.wav,1,158,10,1389943,336,117.285
D,1,1273927,vowelstep7.wav,None,1000,10,1391943,1178,119.285
D,1,1273927,sinestep5.wav,None,1000,10,1393943,337,121.285
D,1,1273927,vowelstep7.wav,None,1000,10,1395943,347,123.285
D,1,1273927,sinestep1.wav,None,1000,10,1397943,326,125.285
D,1,1273927,sinestep1.wav,None,1000,10,1399944,325,127.285
D,1,1273927,vowelstep3.wav,None,1000,10,1401944,325,129.285
D,1,1273927,sinestep1.wav,None,1000,10,1403944,326,131.285
D,1,1273927,silence.wav,None,1000,10,1405944,335,133.285
D,1,1273927,sinestep3.wav,None,1000,10,1407943,335,135.285
D,1,1273927,silence.wav,None,1000,10,1409943,335,137.285
D,1,1273927,vowelstep3.wav,None,1000,10,1411943,315,139.285
D,1,1273927,vowelstep5.wav,None,1000,10,1413943,325,141.285
D,1,1273927,silence.wav,None,1000,10,1415944,326,143.285
D,1,1273927,sinestep5.wav,None,1000,10,1417944,324,145.285
D,1,1273927,sinestep5.wav,None,1000,10,1419944,334,147.285
D,1,1273927,sinestep1.wav,None,1000,10,1421944,334,149.285
D,1,1273927,vowelstep5.wav,None,1000,10,1423944,333,151.285
D,1,1273927,vowelstep5.wav,None,1000,10,1425944,344,153.285
D,1,1273927,sinestep1_catch.wav,1,214,10,1427944,325,155.285
D,1,1273927,sinestep5.wav,None,1000,10,1429944,1111,157.285
D,1,1273927,vowelstep3.wav,None,1000,10,1431943,324,159.285
D,1,1273927,vowelstep7.wav,None,1000,10,1433944,334,161.285
D,1,1273927,vowelstep3.wav,None,1000,10,1435944,333,163.285
D,1,1273927,sinestep3.wav,None,1000,10,1437944,332,165.285
D,1,1273927,sinestep1.wav,None,1000,10,1439944,314,167.285
D,1,1273927,silence.wav,None,1000,10,1441944,321,169.285
D,1,1273927,sinestep1.wav,1,15,10,1443944,323,171.285
D,1,1273927,vowelstep1.wav,None,1000,10,1445944,1308,173.285
D,1,1273927,vowelstep3.wav,None,1000,10,1447944,330,175.285
D,1,1273927,silence.wav,None,1000,10,1449944,333,177.285
D,1,1273927,sinestep7.wav,1,347,10,1451945,333,179.285
D,1,1273927,silence.wav,None,1000,10,1453945,994,181.285
D,1,1273927,vowelstep7.wav,None,1000,10,1455945,322,183.285
D,1,1273927,sinestep3.wav,None,1000,10,1457944,342,185.285
D,1,1273927,vowelstep1.wav,None,1000,10,1459944,322,187.285
D,1,1273927,sinestep7.wav,None,1000,10,1461944,332,189.285
D,1,1273927,silence.wav,None,1000,10,1463944,332,191.285
D,1,1273927,sinestep1.wav,None,1000,10,1465944,332,193.285
D,1,1273927,sinestep3.wav,None,1000,10,1467944,342,195.285
D,1,1273927,sinestep5.wav,None,1000,10,1469945,320,197.285
D,1,1273927,vowelstep3.wav,None,1000,10,1471945,321,199.285
D,1,1273927,sinestep5.wav,None,1000,10,1473945,321,201.285
D,1,1273927,sinestep5.wav,None,1000,10,1475945,331,203.285
D,1,1273927,sinestep3.wav,None,1000,10,1477945,331,205.285
D,1,1273927,sinestep3.wav,None,1000,10,1479945,331,207.285
D,1,1273927,sinestep5.wav,None,1000,10,1481944,340,209.285
D,1,1273927,sinestep3_catch.wav,1,347,10,1483944,341,211.285
D,1,1273927,vowelstep7.wav,None,1000,10,1485945,993,213.285
D,1,1273927,sinestep1.wav,None,1000,10,1487945,339,215.285
D,1,1273927,sinestep7.wav,None,1000,10,1489945,330,217.285
D,1,1273927,vowelstep1.wav,None,1000,10,1491945,331,219.285
D,1,1273927,sinestep5.wav,None,1000,10,1493945,330,221.285
D,1,1273927,silence.wav,None,1000,10,1495945,340,223.285
D,1,1273927,sinestep5_catch.wav,1,164,10,1497945,340,225.285
D,1,1273927,sinestep5.wav,None,1000,10,1499945,1176,227.285
D,1,1273927,silence.wav,None,1000,10,1501945,348,229.285
D,1,1273927,vowelstep7.wav,None,1000,10,1503946,330,231.285
D,1,1273927,sinestep3.wav,None,1000,10,1505945,328,233.285
D,1,1273927,vowelstep5.wav,None,1000,10,1507945,329,235.285
D,1,1273927,vowelstep7.wav,None,1000,10,1509945,339,237.285
D,1,1273927,vowelstep5.wav,None,1000,10,1511945,336,239.285
D,1,1273927,silence.wav,None,1000,10,1513945,346,241.285
D,1,1273927,silence.wav,None,1000,10,1515945,346,243.285
D,1,1273927,silence.wav,None,1000,10,1517945,325,245.285
D,1,1273927,sinestep7.wav,None,1000,10,1519945,325,247.285
D,1,1273927,sinestep5.wav,None,1000,10,1521946,336,249.285
D,1,1273927,sinestep7_catch.wav,1,475,10,1523946,335,251.285
D,1,1273927,vowelstep1.wav,None,1000,10,1525946,859,253.285
D,1,1273927,vowelstep1.wav,None,1000,10,1527946,335,255.285
D,1,1273927,vowelstep3.wav,None,1000,10,1529945,344,257.285
D,1,1273927,silence.wav,None,1000,10,1531945,320,259.285
D,1,1273927,sinestep5.wav,None,1000,10,1533945,324,261.285
D,1,1273927,vowelstep7.wav,None,1000,10,1535945,324,263.285
D,1,1273927,vowelstep3.wav,None,1000,10,1537945,334,265.285
D,1,1273927,vowelstep7.wav,None,1000,10,1539946,334,267.285
D,1,1273927,vowelstep5.wav,None,1000,10,1541946,334,269.285
D,1,1273927,sinestep1.wav,None,1000,10,1543946,314,271.285
D,1,1273927,sinestep7.wav,None,1000,10,1545946,314,273.285
D,1,1273927,sinestep3.wav,None,1000,10,1547946,325,275.285
D,1,1273927,silence.wav,None,1000,10,1549946,333,277.285
D,1,1273927,sinestep7.wav,None,1000,10,1551946,334,279.285
D,1,1273927,vowelstep5.wav,None,1000,10,1553945,333,281.285
D,1,1273927,sinestep1.wav,None,1000,10,1555930,334,283.285
D,1,1273927,vowelstep1.wav,None,1000,10,1557930,343,285.285
D,1,1273927,sinestep1.wav,None,1000,10,1559946,340,287.285
D,1,1273927,vowelstep5.wav,None,1000,10,1561946,324,289.285
D,1,1273927,silence.wav,None,1000,10,1563946,323,291.285
D,1,1273927,sinestep3.wav,None,1000,10,1565946,332,293.285
D,1,1273927,vowelstep5.wav,None,1000,10,1567946,333,295.285
D,1,1273927,silence.wav,None,1000,10,1569946,333,297.285
D,1,1273927,sinestep3.wav,None,1000,10,1571946,313,299.285
D,1,1273927,vowelstep7.wav,None,1000,10,1573930,323,301.285
D,1,1273927,sinestep7_catch.wav,1,360,10,1575930,342,303.285
D,1,1273927,sinestep5_catch.wav,1,254,10,1577946,993,305.285
D,1,1273927,sinestep3.wav,None,1000,10,1579946,1077,307.285
D,1,1273927,vowelstep5.wav,None,1000,10,1581946,333,309.285
D,1,1273927,silence.wav,None,1000,10,1583946,331,311.285
D,1,1273927,sinestep3_catch.wav,1,190,10,1585946,342,313.285
D,1,1273927,silence.wav,None,1000,10,1587946,1131,315.285
D,1,1273927,vowelstep7.wav,None,1000,10,1589946,322,317.285
D,1,1273927,silence.wav,None,1000,10,1591930,323,319.285
A,2,1651182,sinestep5_catch.wav,1,762,10,1651197,0,1.285
A,2,1651182,vowelstep1.wav,None,1000,10,1653197,586,3.285
A,2,1651182,vowelstep3.wav,None,1000,10,1655197,320,5.285
A,2,1651182,sinestep1.wav,None,1000,10,1657197,334,7.285
A,2,1651182,sinestep5_catch.wav,1,189,10,1659197,331,9.285
A,2,1651182,sinestep7.wav,None,1000,10,1661198,1153,11.285
A,2,1651182,sinestep3.wav,None,1000,10,1663198,339,13.285
A,2,1651182,silence.wav,None,1000,10,1665198,342,15.285
A,2,1651182,vowelstep7.wav,None,1000,10,1667198,347,17.285
A,2,1651182,sinestep7.wav,None,1000,10,1669198,331,19.285
A,2,1651182,vowelstep5_catch.wav,1,212,10,1671198,330,21.285
A,2,1651182,sinestep7.wav,None,1000,10,1673198,1118,23.285
A,2,1651182,sinestep3.wav,None,1000,10,1675197,341,25.285
A,2,1651182,silence.wav,None,1000,10,1677197,342,27.285
A,2,1651182,sinestep3.wav,None,1000,10,1679198,341,29.285
A,2,1651182,sinestep5_catch.wav,1,161,10,1681198,350,31.285
A,2,1651182,sinestep1.wav,None,1000,10,1683198,1168,33.285
A,2,1651182,sinestep1.wav,None,1000,10,1685198,329,35.285
A,2,1651182,sinestep5.wav,None,1000,10,1687198,319,37.285
A,2,1651182,vowelstep3.wav,None,1000,10,1689198,330,39.285
A,2,1651182,vowelstep5.wav,None,1000,10,1691198,341,41.285
A,2,1651182,vowelstep3.wav,None,1000,10,1693198,341,43.285
A,2,1651182,vowelstep1.wav,None,1000,10,1695198,351,45.285
A,2,1651182,vowelstep3.wav,None,1000,10,1697199,331,47.285
A,2,1651182,sinestep3.wav,None,1000,10,1699198,327,49.285
A,2,1651182,sinestep7.wav,None,1000,10,1701198,328,51.285
A,2,1651182,sinestep5.wav,None,1000,10,1703198,327,53.285
A,2,1651182,vowelstep7_catch.wav,1,226,10,1705198,339,55.285
A,2,1651182,silence.wav,None,1000,10,1707198,1112,57.285
A,2,1651182,vowelstep3.wav,None,1000,10,1709198,349,59.285
A,2,1651182,vowelstep1.wav,None,1000,10,1711198,319,61.285
A,2,1651182,silence.wav,None,1000,10,1713199,327,63.285
A,2,1651182,sinestep3.wav,None,1000,10,1715199,328,65.285
A,2,1651182,sinestep7.wav,None,1000,10,1717199,338,67.285
A,2,1651182,sinestep5.wav,None,1000,10,1719199,338,69.285
A,2,1651182,sinestep5.wav,None,1000,10,1721199,339,71.285
A,2,1651182,sinestep7.wav,None,1000,10,1723198,348,73.285
A,2,1651182,sinestep1.wav,None,1000,10,1725198,349,75.285
A,2,1651182,sinestep5.wav,None,1000,10,1727198,327,77.285
A,2,1651182,vowelstep1.wav,None,1000,10,1729198,327,79.285
A,2,1651182,sinestep1.wav,None,1000,10,1731199,338,81.285
A,2,1651182,vowelstep5.wav,None,1000,10,1733199,338,83.285
A,2,1651182,sinestep1.wav,None,1000,10,1735199,338,85.285
A,2,1651182,silence.wav,None,1000,10,1737199,338,87.285
A,2,1651182,vowelstep1.wav,None,1000,10,1739199,317,89.285
A,2,1651182,sinestep3.wav,None,1000,10,1741199,328,91.285
A,2,1651182,vowelstep5.wav,None,1000,10,1743199,326,93.285
A,2,1651182,vowelstep5.wav,None,1000,10,1745199,337,95.285
A,2,1651182,vowelstep5.wav,None,1000,10,1747199,308,97.285
A,2,1651182,vowelstep7.wav,None,1000,10,1749199,337,99.285
A,2,1651182,vowelstep3.wav,None,1000,10,1751199,318,101.285
A,2,1651182,sinestep1.wav,None,1000,10,1753199,316,103.285
A,2,1651182,sinestep1.wav,None,1000,10,1755199,324,105.285
A,2,1651182,vowelstep7.wav,None,1000,10,1757199,324,107.285
A,2,1651182,vowelstep1.wav,None,1000,10,1759199,324,109.285
A,2,1651182,vowelstep7.wav,None,1000,10,1761199,337,111.285
A,2,1651182,silence.wav,None,1000,10,1763199,338,113.285
A,2,1651182,sinestep1.wav,None,1000,10,1765199,337,115.285
A,2,1651182,vowelstep1.wav,None,1000,10,1767200,345,117.285
A,2,1651182,silence.wav,None,1000,10,1769200,324,119.285
A,2,1651182,vowelstep1.wav,None,1000,10,1771200,325,121.285
A,2,1651182,vowelstep3.wav,None,1000,10,1773199,324,123.285
A,2,1651182,vowelstep1.wav,None,1000,10,1775199,335,125.285
A,2,1651182,sinestep7.wav,None,1000,10,1777199,335,127.285
A,2,1651182,silence.wav,None,1000,10,1779199,335,129.285
A,2,1651182,vowelstep1.wav,None,1000,10,1781199,315,131.285
A,2,1651182,silence.wav,None,1000,10,1783200,325,133.285
A,2,1651182,sinestep7.wav,None,1000,10,1785200,321,135.285
A,2,1651182,vowelstep5.wav,None,1000,10,1787200,320,137.285
A,2,1651182,sinestep7.wav,None,1000,10,1789200,335,139.285
A,2,1651182,sinestep3.wav,None,1000,10,1791200,332,141.285
A,2,1651182,vowelstep5.wav,None,1000,10,1793200,335,143.285
A,2,1651182,silence.wav,None,1000,10,1795200,324,145.285
A,2,1651182,sinestep3.wav,None,1000,10,1797199,324,147.285
A,2,1651182,sinestep5.wav,None,1000,10,1799199,324,149.285
A,2,1651182,sinestep3.wav,None,1000,10,1801200,324,151.285
A,2,1651182,vowelstep3.wav,None,1000,10,1803200,330,153.285
A,2,1651182,sinestep3.wav,None,1000,10,1805200,333,155.285
A,2,1651182,vowelstep7_catch.wav,None,1000,10,1807200,334,157.285
A,2,1651182,vowelstep7.wav,None,1000,10,1809200,343,159.285
A,2,1651182,vowelstep5.wav,None,1000,10,1811200,323,161.285
A,2,1651182,sinestep5.wav,None,1000,10,1813200,323,163.285
A,2,1651182,silence.wav,None,1000,10,1815200,313,165.285
A,2,1651182,sinestep5.wav,None,1000,10,1817200,333,167.285
A,2,1651182,vowelstep5_catch.wav,1,807,10,1819201,333,169.285
A,2,1651182,silence.wav,None,1000,10,1821200,525,171.285
A,2,1651182,sinestep7.wav,None,1000,10,1823200,342,173.285
A,2,1651182,sinestep5.wav,None,1000,10,1825200,323,175.285
A,2,1651182,sinestep7.wav,None,1000,10,1827200,322,177.285
A,2,1651182,vowelstep3.wav,None,1000,10,1829200,322,179.285
A,2,1651182,sinestep5.wav,None,1000,10,1831200,330,181.285
A,2,1651182,vowelstep1.wav,None,1000,10,1833200,332,183.285
A,2,1651182,vowelstep5.wav,None,1000,10,1835200,331,185.285
A,2,1651182,sinestep5.wav,None,1000,10,1837201,341,187.285
A,2,1651182,vowelstep1.wav,None,1000,10,1839201,342,189.285
A,2,1651182,silence.wav,None,1000,10,1841201,322,191.285
A,2,1651182,sinestep1.wav,None,1000,10,1843201,320,193.285
A,2,1651182,vowelstep5.wav,None,1000,10,1845200,321,195.285
A,2,1651182,sinestep3.wav,None,1000,10,1847200,316,197.285
A,2,1651182,silence.wav,None,1000,10,1849200,329,199.285
A,2,1651182,vowelstep3.wav,None,1000,10,1851200,341,201.285
A,2,1651182,vowelstep3_catch.wav,1,335,10,1853184,309,203.285
A,2,1651182,vowelstep5.wav,None,1000,10,1855201,1005,205.285
A,2,1651182,vowelstep1_catch.wav,1,235,10,1857201,319,207.285
A,2,1651182,silence.wav,None,1000,10,1859201,1094,209.285
A,2,1651182,sinestep3.wav,None,1000,10,1861201,329,211.285
A,2,1651182,vowelstep5.wav,None,1000,10,1863201,328,213.285
A,2,1651182,silence.wav,None,1000,10,1865201,328,215.285
A,2,1651182,sinestep5.wav,None,1000,10,1867201,339,217.285
A,2,1651182,vowelstep7.wav,None,1000,10,1869200,320,219.285
A,2,1651182,silence.wav,None,1000,10,1871185,350,221.285
A,2,1651182,vowelstep3.wav,None,1000,10,1873201,349,223.285
A,2,1651182,sinestep7.wav,None,1000,10,1875201,328,225.285
A,2,1651182,silence.wav,None,1000,10,1877201,328,227.285
A,2,1651182,vowelstep3.wav,None,1000,10,1879201,284,229.285
A,2,1651182,vowelstep5.wav,None,1000,10,1881201,337,231.285
A,2,1651182,vowelstep7.wav,None,1000,10,1883201,338,233.285
A,2,1651182,vowelstep3.wav,None,1000,10,1885201,339,235.285
A,2,1651182,vowelstep5.wav,None,1000,10,1887201,327,237.285
A,2,1651182,sinestep1_catch.wav,1,626,10,1889185,327,239.285
A,2,1651182,sinestep3.wav,None,1000,10,1891202,721,241.285
A,2,1651182,sinestep1.wav,None,1000,10,1893201,327,243.285
A,2,1651182,sinestep3_catch.wav,1,183,10,1895201,338,245.285
A,2,1651182,sinestep7.wav,None,1000,10,1897201,1155,247.285
A,2,1651182,vowelstep1.wav,None,1000,10,1899201,348,249.285
A,2,1651182,sinestep3.wav,None,1000,10,1901184,349,251.285
A,2,1651182,vowelstep7.wav,None,1000,10,1903201,348,253.285
A,2,1651182,silence.wav,None,1000,10,1905201,328,255.285
A,2,1651182,sinestep1.wav,None,1000,10,1907185,326,257.285
A,2,1651182,silence.wav,None,1000,10,1909202,338,259.285
A,2,1651182,vowelstep5.wav,None,1000,10,1911202,334,261.285
A,2,1651182,sinestep5_catch.wav,1,291,10,1913202,337,263.285
A,2,1651182,vowelstep7.wav,None,1000,10,1915202,1055,265.285
A,2,1651182,sinestep3.wav,None,1000,10,1917185,325,267.285
A,2,1651182,vowelstep1.wav,None,1000,10,1919185,347,269.285
A,2,1651182,vowelstep3.wav,None,1000,10,1921201,357,271.285
A,2,1651182,sinestep7_catch.wav,1,248,10,1923186,336,273.285
A,2,1651182,silence.wav,None,1000,10,1925185,1087,275.285
A,2,1651182,vowelstep7.wav,None,1000,10,1927185,335,277.285
A,2,1651182,sinestep7.wav,None,1000,10,1929202,336,279.285
A,2,1651182,sinestep1.wav,None,1000,10,1931202,325,281.285
A,2,1651182,vowelstep7.wav,None,1000,10,1933185,325,283.285
A,2,1651182,sinestep5.wav,None,1000,10,1935185,356,285.285
A,2,1651182,sinestep5.wav,None,1000,10,1937185,336,287.285
A,2,1651182,sinestep7_catch.wav,1,248,10,1939202,335,289.285
A,2,1651182,sinestep5.wav,None,1000,10,1941186,1087,291.285
A,2,1651182,silence.wav,None,1000,10,1943186,345,293.285
A,2,1651182,vowelstep3.wav,None,1000,10,1945186,345,295.285
A,2,1651182,silence.wav,None,1000,10,1947202,345,297.285
A,2,1651182,vowelstep1.wav,None,1000,10,1949186,324,299.285
A,2,1651182,sinestep1.wav,None,1000,10,1951185,355,301.285
A,2,1651182,sinestep7.wav,None,1000,10,1953185,357,303.285
A,2,1651182,vowelstep7.wav,None,1000,10,1955185,365,305.285
A,2,1651182,sinestep1_catch.wav,1,409,10,1957185,335,307.285
A,2,1651182,silence.wav,None,1000,10,1959186,935,309.285
A,2,1651182,silence.wav,None,1000,10,1961186,343,311.285
A,2,1651182,vowelstep7.wav,None,1000,10,1963186,354,313.285
A,2,1651182,sinestep1.wav,None,1000,10,1965186,354,315.285
A,2,1651182,vowelstep7.wav,None,1000,10,1967186,354,317.285
A,2,1651182,vowelstep7.wav,None,1000,10,1969186,335,319.285
H,3,2031355,sinestep3.wav,None,1000,10,2031370,0,1.285
H,3,2031355,sinestep7.wav,None,1000,10,2033370,332,3.285
H,3,2031355,sinestep3.wav,None,1000,10,2035370,333,5.285
H,3,2031355,vowelstep3.wav,None,1000,10,2037370,332,7.285
H,3,2031355,vowelstep1.wav,None,1000,10,2039370,343,9.285
H,3,2031355,sinestep7.wav,None,1000,10,2041370,344,11.285
H,3,2031355,vowelstep3.wav,None,1000,10,2043370,323,13.285
H,3,2031355,silence.wav,None,1000,10,2045371,323,15.285
H,3,2031355,vowelstep1.wav,None,1000,10,2047371,332,17.285
H,3,2031355,sinestep5.wav,None,1000,10,2049371,331,19.285
H,3,2031355,sinestep7.wav,None,1000,10,2051371,342,21.285
H,3,2031355,vowelstep7.wav,None,1000,10,2053371,342,23.285
H,3,2031355,vowelstep1_catch.wav,1,162,10,2055370,339,25.285
H,3,2031355,sinestep5.wav,None,1000,10,2057370,1179,27.285
H,3,2031355,vowelstep5.wav,None,1000,10,2059370,351,29.285
H,3,2031355,silence.wav,None,1000,10,2061370,332,31.285
H,3,2031355,vowelstep3_catch.wav,1,285,10,2063371,332,33.285
H,3,2031355,sinestep7.wav,None,1000,10,2065371,1045,35.285
H,3,2031355,sinestep5.wav,None,1000,10,2067371,339,37.285
H,3,2031355,silence.wav,None,1000,10,2069371,341,39.285
H,3,2031355,vowelstep3.wav,None,1000,10,2071371,351,41.285
H,3,2031355,vowelstep1.wav,None,1000,10,2073371,352,43.285
H,3,2031355,vowelstep1.wav,None,1000,10,2075371,330,45.285
H,3,2031355,vowelstep3.wav,None,1000,10,2077371,331,47.285
H,3,2031355,sinestep3.wav,None,1000,10,2079370,330,49.285
H,3,2031355,vowelstep1.wav,None,1000,10,2081371,342,51.285
H,3,2031355,sinestep7.wav,None,1000,10,2083371,341,53.285
H,3,2031355,vowelstep7.wav,None,1000,10,2085371,341,55.285
H,3,2031355,vowelstep5_catch.wav,1,687,10,2087371,321,57.285
H,3,2031355,vowelstep5.wav,None,1000,10,2089371,644,59.285
H,3,2031355,vowelstep3.wav,None,1000,10,2091371,329,61.285
H,3,2031355,vowelstep7_catch.wav,1,186,10,2093371,327,63.285
H,3,2031355,sinestep3.wav,None,1000,10,2095371,1152,65.285
H,3,2031355,sinestep1.wav,None,1000,10,2097371,337,67.285
H,3,2031355,sinestep7.wav,None,1000,10,2099372,339,69.285
H,3,2031355,silence.wav,None,1000,10,2101372,338,71.285
H,3,2031355,vowelstep1.wav,None,1000,10,2103371,329,73.285
H,3,2031355,vowelstep7.wav,None,1000,10,2105371,328,75.285
H,3,2031355,sinestep7.wav,None,1000,10,2107371,329,77.285
H,3,2031355,sinestep1.wav,None,1000,10,2109371,328,79.285
H,3,2031355,sinestep7.wav,None,1000,10,2111371,338,81.285
H,3,2031355,sinestep1.wav,None,1000,10,2113371,338,83.285
H,3,2031355,vowelstep5.wav,None,1000,10,2115372,318,85.285
H,3,2031355,sinestep3.wav,None,1000,10,2117372,318,87.285
H,3,2031355,vowelstep5.wav,None,1000,10,2119372,328,89.285
H,3,2031355,silence.wav,None,1000,10,2121372,328,91.285
H,3,2031355,silence.wav,None,1000,10,2123372,335,93.285
H,3,2031355,sinestep5.wav,None,1000,10,2125372,337,95.285
H,3,2031355,sinestep3.wav,None,1000,10,2127371,337,97.285
H,3,2031355,sinestep7.wav,None,1000,10,2129371,333,99.285
H,3,2031355,sinestep7_catch.wav,1,312,10,2131371,327,101.285
H,3,2031355,silence.wav,None,1000,10,2133372,1015,103.285
H,3,2031355,sinestep3.wav,None,1000,10,2135372,326,105.285
H,3,2031355,silence.wav,None,1000,10,2137372,326,107.285
H,3,2031355,vowelstep1.wav,None,1000,10,2139372,337,109.285
H,3,2031355,vowelstep7.wav,None,1000,10,2141372,337,111.285
H,3,2031355,sinestep5.wav,None,1000,10,2143372,347,113.285
H,3,2031355,silence.wav,None,1000,10,2145372,317,115.285
H,3,2031355,vowelstep7.wav,None,1000,10,2147372,326,117.285
H,3,2031355,vowelstep3.wav,None,1000,10,2149372,327,119.285
H,3,2031355,sinestep5.wav,None,1000,10,2151373,327,121.285
H,3,2031355,sinestep1.wav,None,1000,10,2153372,336,123.285
H,3,2031355,vowelstep3.wav,None,1000,10,2155372,335,125.285
H,3,2031355,vowelstep3.wav,None,1000,10,2157372,335,127.285
H,3,2031355,vowelstep5.wav,None,1000,10,2159372,315,129.285
H,3,2031355,vowelstep1.wav,None,1000,10,2161372,326,131.285
H,3,2031355,vowelstep7.wav,None,1000,10,2163372,325,133.285
H,3,2031355,vowelstep3.wav,None,1000,10,2165372,324,135.285
H,3,2031355,vowelstep5.wav,None,1000,10,2167372,334,137.285
H,3,2031355,vowelstep5.wav,None,1000,10,2169373,334,139.285
H,3,2031355,sinestep7.wav,None,1000,10,2171373,334,141.285
H,3,2031355,vowelstep1.wav,None,1000,10,2173373,344,143.285
H,3,2031355,sinestep3.wav,None,1000,10,2175373,323,145.285
H,3,2031355,sinestep1.wav,None,1000,10,2177372,325,147.285
H,3,2031355,vowelstep1.wav,None,1000,10,2179372,324,149.285
H,3,2031355,sinestep5_catch.wav,1,292,10,2181372,333,151.285
H,3,2031355,sinestep7.wav,None,1000,10,2183372,1043,153.285
H,3,2031355,sinestep3_catch.wav,1,276,10,2185373,333,155.285
H,3,2031355,sinestep7.wav,None,1000,10,2187373,1067,157.285
H,3,2031355,sinestep5.wav,None,1000,10,2189373,286,159.285
H,3,2031355,silence.wav,None,1000,10,2191373,322,161.285
H,3,2031355,sinestep1_catch.wav,1,152,10,2193373,322,163.285
H,3,2031355,vowelstep7.wav,None,1000,10,2195373,1181,165.285
H,3,2031355,vowelstep7.wav,None,1000,10,2197373,332,167.285
H,3,2031355,sinestep7.wav,None,1000,10,2199373,333,169.285
H,3,2031355,sinestep3.wav,None,1000,10,2201372,342,171.285
H,3,2031355,sinestep5.wav,None,1000,10,2203373,323,173.285
H,3,2031355,vowelstep1_catch.wav,1,240,10,2205373,322,175.285
H,3,2031355,vowelstep1.wav,None,1000,10,2207373,1081,177.285
H,3,2031355,sinestep3.wav,None,1000,10,2209373,331,179.285
H,3,2031355,sinestep3.wav,None,1000,10,2211373,333,181.285
H,3,2031355,vowelstep5.wav,None,1000,10,2213373,332,183.285
H,3,2031355,sinestep1.wav,None,1000,10,2215373,340,185.285
H,3,2031355,sinestep1.wav,None,1000,10,2217373,313,187.285
H,3,2031355,vowelstep7.wav,None,1000,10,2219373,320,189.285
H,3,2031355,sinestep1.wav,None,1000,10,2221374,322,191.285
H,3,2031355,sinestep5.wav,None,1000,10,2223374,330,193.285
H,3,2031355,vowelstep3_catch.wav,None,1000,10,2225373,331,195.285
H,3,2031355,sinestep1.wav,None,1000,10,2227373,331,197.285
H,3,2031355,silence.wav,None,1000,10,2229373,341,199.285
H,3,2031355,vowelstep1.wav,None,1000,10,2231373,321,201.285
H,3,2031355,vowelstep5_catch.wav,1,201,10,2233373,320,203.285
H,3,2031355,sinestep5.wav,None,1000,10,2235373,1119,205.285
H,3,2031355,sinestep1.wav,None,1000,10,2237373,331,207.285
H,3,2031355,silence.wav,None,1000,10,2239374,329,209.285
H,3,2031355,sinestep3.wav,None,1000,10,2241374,330,211.285
H,3,2031355,silence.wav,None,1000,10,2243374,339,213.285
H,3,2031355,vowelstep7_catch.wav,1,241,10,2245374,340,215.285
H,3,2031355,vowelstep5.wav,None,1000,10,2247374,1080,217.285
H,3,2031355,sinestep7.wav,None,1000,10,2249373,320,219.285
H,3,2031355,silence.wav,None,1000,10,2251373,321,221.285
H,3,2031355,sinestep1.wav,None,1000,10,2253373,330,223.285
H,3,2031355,silence.wav,None,1000,10,2255374,329,225.285
H,3,2031355,silence.wav,None,1000,10,2257374,329,227.285
H,3,2031355,silence.wav,None,1000,10,2259374,308,229.285
H,3,2031355,silence.wav,None,1000,10,2261374,320,231.285
H,3,2031355,sinestep5.wav,None,1000,10,2263374,318,233.285
H,3,2031355,silence.wav,None,1000,10,2265374,317,235.285
H,3,2031355,vowelstep3.wav,None,1000,10,2267374,329,237.285
H,3,2031355,silence.wav,None,1000,10,2269374,328,239.285
H,3,2031355,silence.wav,None,1000,10,2271374,329,241.285
H,3,2031355,vowelstep1_catch.wav,1,324,10,2273374,339,243.285
H,3,2031355,vowelstep5.wav,None,1000,10,2275374,1013,245.285
H,3,2031355,vowelstep7.wav,None,1000,10,2277374,317,247.285
H,3,2031355,vowelstep3_catch.wav,1,200,10,2279374,318,249.285
H,3,2031355,vowelstep1.wav,None,1000,10,2281357,1127,251.285
H,3,2031355,sinestep3.wav,None,1000,10,2283374,348,253.285
H,3,2031355,vowelstep5_catch.wav,1,309,10,2285374,337,255.285
H,3,2031355,vowelstep5.wav,None,1000,10,2287374,1028,257.285
H,3,2031355,silence.wav,None,1000,10,2289374,315,259.285
H,3,2031355,vowelstep7.wav,None,1000,10,2291375,338,261.285
H,3,2031355,sinestep5.wav,None,1000,10,2293375,317,263.285
H,3,2031355,vowelstep5.wav,None,1000,10,2295375,326,265.285
H,3,2031355,vowelstep7.wav,None,1000,10,2297358,326,267.285
H,3,2031355,vowelstep3.wav,None,1000,10,2299358,321,269.285
H,3,2031355,vowelstep3.wav,None,1000,10,2301374,336,271.285
H,3,2031355,silence.wav,None,1000,10,2303374,336,273.285
H,3,2031355,vowelstep3.wav,None,1000,10,2305374,337,275.285
H,3,2031355,sinestep1.wav,None,1000,10,2307374,346,277.285
H,3,2031355,silence.wav,None,1000,10,2309375,325,279.285
H,3,2031355,sinestep1.wav,None,1000,10,2311375,325,281.285
H,3,2031355,vowelstep3.wav,None,1000,10,2313358,326,283.285
H,3,2031355,silence.wav,None,1000,10,2315358,336,285.285
H,3,2031355,vowelstep5.wav,None,1000,10,2317358,334,287.285
H,3,2031355,vowelstep5.wav,None,1000,10,2319375,336,289.285
H,3,2031355,vowelstep1.wav,None,1000,10,2321374,317,291.285
H,3,2031355,sinestep5.wav,None,1000,10,2323374,326,293.285
H,3,2031355,vowelstep7.wav,None,1000,10,2325359,324,295.285
H,3,2031355,vowelstep1.wav,None,1000,10,2327375,355,297.285
H,3,2031355,vowelstep7.wav,None,1000,10,2329358,325,299.285
H,3,2031355,vowelstep3.wav,None,1000,10,2331358,331,301.285
H,3,2031355,sinestep1.wav,None,1000,10,2333358,334,303.285
H,3,2031355,sinestep5.wav,None,1000,10,2335358,333,305.285
H,3,2031355,vowelstep5.wav,None,1000,10,2337358,344,307.285
H,3,2031355,sinestep3.wav,None,1000,10,2339375,345,309.285
H,3,2031355,vowelstep7.wav,None,1000,10,2341375,325,311.285
H,3,2031355,sinestep7.wav,None,1000,10,2343359,325,313.285
H,3,2031355,sinestep5.wav,None,1000,10,2345359,334,315.285
H,3,2031355,sinestep3.wav,None,1000,10,2347359,334,317.285
H,3,2031355,sinestep1.wav,None,1000,10,2349359,343,319.285
J,4,2415690,sinestep5_catch.wav,2,696,10,2415693,0,1.285
J,4,2415690,sinestep5.wav,None,1000,10,2417710,645,3.285
J,4,2415690,sinestep3.wav,None,1000,10,2419710,314,5.285
J,4,2415690,sinestep1.wav,None,1000,10,2421710,324,7.285
J,4,2415690,sinestep7.wav,None,1000,10,2423710,325,9.285
J,4,2415690,vowelstep3.wav,None,1000,10,2425693,334,11.285
J,4,2415690,sinestep1.wav,None,1000,10,2427693,333,13.285
J,4,2415690,vowelstep5.wav,None,1000,10,2429709,336,15.285
J,4,2415690,vowelstep3.wav,None,1000,10,2431694,335,17.285
J,4,2415690,vowelstep1.wav,None,1000,10,2433694,345,19.285
J,4,2415690,vowelstep1.wav,None,1000,10,2435693,343,21.285
J,4,2415690,sinestep3.wav,None,1000,10,2437710,332,23.285
J,4,2415690,silence.wav,None,1000,10,2439710,323,25.285
J,4,2415690,vowelstep7.wav,None,1000,10,2441693,334,27.285
J,4,2415690,sinestep3.wav,None,1000,10,2443693,354,29.285
J,4,2415690,sinestep7.wav,None,1000,10,2445693,344,31.285
J,4,2415690,silence.wav,None,1000,10,2447694,343,33.285
J,4,2415690,vowelstep5.wav,None,1000,10,2449694,343,35.285
J,4,2415690,sinestep1.wav,None,1000,10,2451694,342,37.285
J,4,2415690,sinestep1_catch.wav,2,198,10,2453694,322,39.285
J,4,2415690,sinestep7.wav,None,1000,10,2455710,1134,41.285
J,4,2415690,vowelstep7.wav,None,1000,10,2457694,333,43.285
J,4,2415690,sinestep3_catch.wav,2,174,10,2459693,363,45.285
J,4,2415690,vowelstep3.wav,None,1000,10,2461693,1168,47.285
J,4,2415690,vowelstep7.wav,None,1000,10,2463693,343,49.285
J,4,2415690,sinestep1.wav,None,1000,10,2465694,342,51.285
J,4,2415690,vowelstep3.wav,None,1000,10,2467694,351,53.285
J,4,2415690,vowelstep1.wav,None,1000,10,2469694,352,55.285
J,4,2415690,sinestep5.wav,None,1000,10,2471694,352,57.285
J,4,2415690,sinestep5_catch.wav,2,320,10,2473694,332,59.285
J,4,2415690,sinestep5.wav,None,1000,10,2475694,1021,61.285
J,4,2415690,vowelstep7.wav,None,1000,10,2477694,338,63.285
J,4,2415690,sinestep7.wav,None,1000,10,2479694,342,65.285
J,4,2415690,vowelstep1.wav,None,1000,10,2481694,351,67.285
J,4,2415690,sinestep7_catch.wav,2,238,10,2483694,345,69.285
J,4,2415690,silence.wav,None,1000,10,2485694,1111,71.285
J,4,2415690,vowelstep5.wav,None,1000,10,2487694,359,73.285
J,4,2415690,sinestep5.wav,None,1000,10,2489694,341,75.285
J,4,2415690,sinestep5.wav,None,1000,10,2491694,339,77.285
J,4,2415690,vowelstep3.wav,None,1000,10,2493694,341,79.285
J,4,2415690,vowelstep5.wav,None,1000,10,2495694,351,81.285
J,4,2415690,sinestep3.wav,None,1000,10,2497694,350,83.285
J,4,2415690,silence.wav,None,1000,10,2499694,352,85.285
J,4,2415690,vowelstep3.wav,None,1000,10,2501695,329,87.285
J,4,2415690,vowelstep7.wav,None,1000,10,2503695,331,89.285
J,4,2415690,silence.wav,None,1000,10,2505695,340,91.285
J,4,2415690,sinestep3.wav,None,1000,10,2507694,339,93.285
J,4,2415690,silence.wav,None,1000,10,2509694,350,95.285
J,4,2415690,sinestep1.wav,None,1000,10,2511694,350,97.285
J,4,2415690,sinestep5_catch.wav,2,250,10,2513694,350,99.285
J,4,2415690,sinestep7.wav,None,1000,10,2515694,1109,101.285
J,4,2415690,sinestep5.wav,None,1000,10,2517695,338,103.285
J,4,2415690,sinestep5.wav,None,1000,10,2519695,339,105.285
J,4,2415690,sinestep3.wav,None,1000,10,2521695,339,107.285
J,4,2415690,sinestep3_catch.wav,2,264,10,2523695,349,109.285
J,4,2415690,sinestep3.wav,None,1000,10,2525695,1085,111.285
J,4,2415690,silence.wav,None,1000,10,2527695,348,113.285
J,4,2415690,sinestep1.wav,None,1000,10,2529695,358,115.285
J,4,2415690,silence.wav,None,1000,10,2531695,358,117.285
J,4,2415690,vowelstep3.wav,None,1000,10,2533694,335,119.285
J,4,2415690,vowelstep5.wav,None,1000,10,2535695,340,121.285
J,4,2415690,vowelstep7.wav,None,1000,10,2537695,336,123.285
J,4,2415690,silence.wav,None,1000,10,2539695,347,125.285
J,4,2415690,sinestep1.wav,None,1000,10,2541695,349,127.285
J,4,2415690,sinestep3.wav,None,1000,10,2543695,358,129.285
J,4,2415690,sinestep7.wav,None,1000,10,2545695,324,131.285
J,4,2415690,silence.wav,None,1000,10,2547695,333,133.285
J,4,2415690,sinestep1.wav,None,1000,10,2549695,331,135.285
J,4,2415690,vowelstep7.wav,None,1000,10,2551695,343,137.285
J,4,2415690,sinestep5.wav,None,1000,10,2553696,347,139.285
J,4,2415690,vowelstep1.wav,None,1000,10,2555695,345,141.285
J,4,2415690,vowelstep7.wav,None,1000,10,2557695,346,143.285
J,4,2415690,vowelstep3.wav,None,1000,10,2559695,336,145.285
J,4,2415690,vowelstep3.wav,None,1000,10,2561695,336,147.285
J,4,2415690,sinestep7.wav,None,1000,10,2563695,336,149.285
J,4,2415690,vowelstep5.wav,None,1000,10,2565695,336,151.285
J,4,2415690,silence.wav,None,1000,10,2567695,346,153.285
J,4,2415690,sinestep1.wav,None,1000,10,2569696,346,155.285
J,4,2415690,sinestep3.wav,None,1000,10,2571696,355,157.285
J,4,2415690,silence.wav,None,1000,10,2573696,325,159.285
J,4,2415690,sinestep1.wav,None,1000,10,2575696,335,161.285
J,4,2415690,vowelstep7.wav,None,1000,10,2577696,335,163.285
J,4,2415690,vowelstep7.wav,None,1000,10,2579696,345,165.285
J,4,2415690,sinestep1_catch.wav,2,289,10,2581695,345,167.285
J,4,2415690,vowelstep1_catch.wav,2,360,10,2583695,1056,169.285
J,4,2415690,vowelstep1.wav,None,1000,10,2585695,985,171.285
J,4,2415690,vowelstep7.wav,None,1000,10,2587696,334,173.285
J,4,2415690,sinestep1.wav,None,1000,10,2589696,334,175.285
J,4,2415690,vowelstep5.wav,None,1000,10,2591696,334,177.285
J,4,2415690,vowelstep5.wav,None,1000,10,2593696,334,179.285
J,4,2415690,sinestep5.wav,None,1000,10,2595696,344,181.285
J,4,2415690,sinestep7.wav,None,1000,10,2597696,344,183.285
J,4,2415690,sinestep7.wav,None,1000,10,2599696,344,185.285
J,4,2415690,sinestep1.wav,None,1000,10,2601696,354,187.285
J,4,2415690,vowelstep1.wav,None,1000,10,2603696,334,189.285
J,4,2415690,silence.wav,None,1000,10,2605696,334,191.285
J,4,2415690,sinestep5.wav,None,1000,10,2607696,331,193.285
J,4,2415690,vowelstep5.wav,None,1000,10,2609696,343,195.285
J,4,2415690,vowelstep1.wav,None,1000,10,2611696,341,197.285
J,4,2415690,vowelstep1.wav,None,1000,10,2613696,337,199.285
J,4,2415690,sinestep3.wav,None,1000,10,2615696,348,201.285
J,4,2415690,sinestep3.wav,None,1000,10,2617696,332,203.285
J,4,2415690,silence.wav,None,1000,10,2619696,332,205.285
J,4,2415690,sinestep5.wav,None,1000,10,2621696,333,207.285
J,4,2415690,vowelstep1.wav,None,1000,10,2623697,342,209.285
J,4,2415690,vowelstep5.wav,None,1000,10,2625697,342,211.285
J,4,2415690,vowelstep3.wav,None,1000,10,2627697,341,213.285
J,4,2415690,vowelstep3.wav,None,1000,10,2629696,341,215.285
J,4,2415690,silence.wav,None,1000,10,2631696,329,217.285
J,4,2415690,sinestep1.wav,None,1000,10,2633696,332,219.285
J,4,2415690,vowelstep3.wav,None,1000,10,2635696,329,221.285
J,4,2415690,sinestep7.wav,None,1000,10,2637696,342,223.285
J,4,2415690,vowelstep7.wav,None,1000,10,2639697,340,225.285
J,4,2415690,silence.wav,None,1000,10,2641697,341,227.285
J,4,2415690,vowelstep5.wav,None,1000,10,2643697,321,229.285
J,4,2415690,silence.wav,None,1000,10,2645697,321,231.285
J,4,2415690,sinestep3.wav,None,1000,10,2647697,330,233.285
J,4,2415690,vowelstep5.wav,None,1000,10,2649697,330,235.285
J,4,2415690,vowelstep3.wav,None,1000,10,2651697,340,237.285
J,4,2415690,vowelstep5.wav,None,1000,10,2653696,341,239.285
J,4,2415690,vowelstep7.wav,None,1000,10,2655696,340,241.285
J,4,2415690,vowelstep1.wav,None,1000,10,2657697,341,243.285
J,4,2415690,sinestep7.wav,None,1000,10,2659697,330,245.285
J,4,2415690,sinestep7.wav,None,1000,10,2661697,329,247.285
J,4,2415690,silence.wav,None,1000,10,2663697,330,249.285
J,4,2415690,vowelstep1.wav,None,1000,10,2665697,339,251.285
J,4,2415690,vowelstep3_catch.wav,None,1000,10,2667697,340,253.285
J,4,2415690,vowelstep1.wav,None,1000,10,2669697,340,255.285
J,4,2415690,vowelstep5_catch.wav,2,554,10,2671697,350,257.285
J,4,2415690,silence.wav,None,1000,10,2673697,795,259.285
J,4,2415690,sinestep5.wav,None,1000,10,2675698,328,261.285
J,4,2415690,vowelstep1.wav,None,1000,10,2677697,324,263.285
J,4,2415690,sinestep5.wav,None,1000,10,2679697,335,265.285
J,4,2415690,vowelstep3.wav,None,1000,10,2681697,339,267.285
J,4,2415690,sinestep5.wav,None,1000,10,2683697,338,269.285
J,4,2415690,sinestep7.wav,None,1000,10,2685697,339,271.285
J,4,2415690,silence.wav,None,1000,10,2687697,348,273.285
J,4,2415690,vowelstep7_catch.wav,2,187,10,2689697,349,275.285
J,4,2415690,sinestep3.wav,None,1000,10,2691697,1161,277.285
J,4,2415690,vowelstep5.wav,None,1000,10,2693698,358,279.285
J,4,2415690,silence.wav,None,1000,10,2695698,336,281.285
J,4,2415690,silence.wav,None,1000,10,2697698,338,283.285
J,4,2415690,silence.wav,None,1000,10,2699698,338,285.285
J,4,2415690,vowelstep7.wav,None,1000,10,2701698,348,287.285
J,4,2415690,sinestep3.wav,None,1000,10,2703697,348,289.285
J,4,2415690,vowelstep5_catch.wav,2,474,10,2705697,347,291.285
J,4,2415690,silence.wav,None,1000,10,2707697,883,293.285
J,4,2415690,sinestep7.wav,None,1000,10,2709698,338,295.285
J,4,2415690,vowelstep1.wav,None,1000,10,2711698,337,297.285
J,4,2415690,silence.wav,None,1000,10,2713698,346,299.285
J,4,2415690,sinestep1.wav,None,1000,10,2715698,346,301.285
J,4,2415690,sinestep5.wav,None,1000,10,2717698,347,303.285
J,4,2415690,vowelstep5.wav,None,1000,10,2719698,347,305.285
J,4,2415690,vowelstep3.wav,None,1000,10,2721698,356,307.285
J,4,2415690,sinestep7.wav,None,1000,10,2723698,337,309.285
J,4,2415690,vowelstep7.wav,None,1000,10,2725697,337,311.285
J,4,2415690,vowelstep3_catch.wav,2,427,10,2727698,337,313.285
J,4,2415690,vowelstep1_catch.wav,2,203,10,2729698,917,315.285
J,4,2415690,sinestep3.wav,None,1000,10,2731698,1142,317.285
J,4,2415690,sinestep1.wav,None,1000,10,2733698,346,319.285
C,5,2796802,sinestep1.wav,None,1000,10,2796815,0,1.285
C,5,2796802,vowelstep1.wav,None,1000,10,2798816,329,3.285
C,5,2796802,sinestep1.wav,None,1000,10,2800816,329,5.285
C,5,2796802,sinestep1.wav,None,1000,10,2802816,329,7.285
C,5,2796802,vowelstep1.wav,None,1000,10,2804816,340,9.285
C,5,2796802,sinestep1.wav,None,1000,10,2806816,324,11.285
C,5,2796802,sinestep7.wav,None,1000,10,2808816,322,13.285
C,5,2796802,vowelstep7.wav,None,1000,10,2810816,324,15.285
C,5,2796802,vowelstep3.wav,None,1000,10,2812816,333,17.285
C,5,2796802,vowelstep5.wav,None,1000,10,2814816,332,19.285
C,5,2796802,silence.wav,None,1000,10,2816816,333,21.285
C,5,2796802,sinestep3.wav,None,1000,10,2818816,312,23.285
C,5,2796802,vowelstep5.wav,None,1000,10,2820816,322,25.285
C,5,2796802,sinestep1.wav,None,1000,10,2822816,322,27.285
C,5,2796802,vowelstep1.wav,None,1000,10,2824816,322,29.285
C,5,2796802,vowelstep7.wav,None,1000,10,2826816,332,31.285
C,5,2796802,vowelstep3.wav,None,1000,10,2828816,332,33.285
C,5,2796802,sinestep1.wav,None,1000,10,2830816,332,35.285
C,5,2796802,sinestep5.wav,None,1000,10,2832817,342,37.285
C,5,2796802,silence.wav,None,1000,10,2834817,321,39.285
C,5,2796802,vowelstep7.wav,None,1000,10,2836817,321,41.285
C,5,2796802,vowelstep5.wav,None,1000,10,2838816,322,43.285
C,5,2796802,sinestep5.wav,None,1000,10,2840816,328,45.285
C,5,2796802,silence.wav,None,1000,10,2842816,332,47.285
C,5,2796802,sinestep5.wav,None,1000,10,2844816,330,49.285
C,5,2796802,sinestep1.wav,None,1000,10,2846816,341,51.285
C,5,2796802,silence.wav,None,1000,10,2848816,341,53.285
C,5,2796802,vowelstep1.wav,None,1000,10,2850817,341,55.285
C,5,2796802,vowelstep1.wav,None,1000,10,2852817,350,57.285
C,5,2796802,sinestep1.wav,None,1000,10,2854817,330,59.285
C,5,2796802,silence.wav,None,1000,10,2856817,328,61.285
C,5,2796802,vowelstep5.wav,None,1000,10,2858817,331,63.285
C,5,2796802,vowelstep3.wav,None,1000,10,2860817,328,65.285
C,5,2796802,vowelstep3.wav,None,1000,10,2862817,337,67.285
C,5,2796802,vowelstep7.wav,None,1000,10,2864816,336,69.285
C,5,2796802,silence.wav,None,1000,10,2866816,346,71.285
C,5,2796802,vowelstep3.wav,None,1000,10,2868817,314,73.285
C,5,2796802,silence.wav,None,1000,10,2870817,329,75.285
C,5,2796802,sinestep5.wav,None,1000,10,2872817,329,77.285
C,5,2796802,vowelstep7.wav,None,1000,10,2874817,339,79.285
C,5,2796802,vowelstep1_catch.wav,None,1000,10,2876817,340,81.285
C,5,2796802,vowelstep3.wav,None,1000,10,2878817,339,83.285
C,5,2796802,sinestep7.wav,None,1000,10,2880817,349,85.285
C,5,2796802,vowelstep3.wav,None,1000,10,2882817,319,87.285
C,5,2796802,sinestep1.wav,None,1000,10,2884818,328,89.285
C,5,2796802,sinestep7.wav,None,1000,10,2886818,328,91.285
C,5,2796802,sinestep7.wav,None,1000,10,2888817,330,93.285
C,5,2796802,sinestep3.wav,None,1000,10,2890817,338,95.285
C,5,2796802,vowelstep3_catch.wav,2,240,10,2892817,339,97.285
C,5,2796802,sinestep5.wav,None,1000,10,2894817,1097,99.285
C,5,2796802,sinestep5.wav,None,1000,10,2896817,348,101.285
C,5,2796802,vowelstep3.wav,None,1000,10,2898817,328,103.285
C,5,2796802,vowelstep5.wav,None,1000,10,2900817,327,105.285
C,5,2796802,sinestep1.wav,None,1000,10,2902818,327,107.285
C,5,2796802,sinestep3.wav,None,1000,10,2904818,337,109.285
C,5,2796802,vowelstep5.wav,None,1000,10,2906818,337,111.285
C,5,2796802,vowelstep7.wav,None,1000,10,2908818,337,113.285
C,5,2796802,vowelstep1.wav,None,1000,10,2910818,317,115.285
C,5,2796802,sinestep7.wav,None,1000,10,2912817,326,117.285
C,5,2796802,sinestep3.wav,None,1000,10,2914817,328,119.285
C,5,2796802,vowelstep1.wav,None,1000,10,2916817,337,121.285
C,5,2796802,vowelstep1.wav,None,1000,10,2918817,338,123.285
C,5,2796802,sinestep3.wav,None,1000,10,2920818,337,125.285
C,5,2796802,silence.wav,None,1000,10,2922818,336,127.285
C,5,2796802,silence.wav,None,1000,10,2924818,346,129.285
C,5,2796802,vowelstep5_catch.wav,2,635,10,2926818,322,131.285
C,5,2796802,vowelstep5.wav,None,1000,10,2928818,687,133.285
C,5,2796802,silence.wav,None,1000,10,2930818,322,135.285
C,5,2796802,sinestep1.wav,None,1000,10,2932818,332,137.285
C,5,2796802,vowelstep7.wav,None,1000,10,2934818,336,139.285
C,5,2796802,sinestep7.wav,None,1000,10,2936818,334,141.285
C,5,2796802,silence.wav,None,1000,10,2938818,344,143.285
C,5,2796802,silence.wav,None,1000,10,2940818,324,145.285
C,5,2796802,sinestep7.wav,None,1000,10,2942818,324,147.285
C,5,2796802,vowelstep1.wav,None,1000,10,2944818,326,149.285
C,5,2796802,vowelstep5.wav,None,1000,10,2946818,334,151.285
C,5,2796802,vowelstep5.wav,None,1000,10,2948818,335,153.285
C,5,2796802,vowelstep7.wav,None,1000,10,2950818,333,155.285
C,5,2796802,sinestep7.wav,None,1000,10,2952818,345,157.285
C,5,2796802,vowelstep1.wav,None,1000,10,2954819,324,159.285
C,5,2796802,vowelstep3.wav,None,1000,10,2956819,324,161.285
C,5,2796802,sinestep5.wav,None,1000,10,2958819,324,163.285
C,5,2796802,sinestep7.wav,None,1000,10,2960818,325,165.285
C,5,2796802,sinestep1.wav,None,1000,10,2962818,333,167.285
C,5,2796802,sinestep7.wav,None,1000,10,2964818,334,169.285
C,5,2796802,sinestep3.wav,None,1000,10,2966818,334,171.285
C,5,2796802,silence.wav,None,1000,10,2968818,324,173.285
C,5,2796802,vowelstep7.wav,None,1000,10,2970818,324,175.285
C,5,2796802,sinestep7.wav,None,1000,10,2972819,324,177.285
C,5,2796802,sinestep5.wav,None,1000,10,2974819,323,179.285
C,5,2796802,vowelstep7.wav,None,1000,10,2976819,333,181.285
C,5,2796802,vowelstep5.wav,None,1000,10,2978819,333,183.285
C,5,2796802,vowelstep3.wav,None,1000,10,2980819,342,185.285
C,5,2796802,vowelstep7_catch.wav,None,1000,10,2982819,323,187.285
C,5,2796802,vowelstep3.wav,None,1000,10,2984818,323,189.285
C,5,2796802,vowelstep5.wav,None,1000,10,2986818,323,191.285
C,5,2796802,vowelstep7.wav,None,1000,10,2988818,332,193.285
C,5,2796802,vowelstep7_catch.wav,2,223,10,2990819,328,195.285
C,5,2796802,vowelstep5_catch.wav,2,145,10,2992819,1105,197.285
C,5,2796802,sinestep5.wav,None,1000,10,2994819,1181,199.285
C,5,2796802,sinestep3.wav,None,1000,10,2996819,338,201.285
C,5,2796802,vowelstep3_catch.wav,2,169,10,2998819,322,203.285
C,5,2796802,vowelstep1_catch.wav,2,47,10,3000819,1151,205.285
C,5,2796802,vowelstep5.wav,None,1000,10,3002819,1274,207.285
C,5,2796802,vowelstep1.wav,None,1000,10,3004819,332,209.285
C,5,2796802,sinestep1_catch.wav,2,160,10,3006820,331,211.285
C,5,2796802,sinestep3_catch.wav,2,125,10,3008819,1180,213.285
C,5,2796802,sinestep1.wav,None,1000,10,3010819,1185,215.285
C,5,2796802,vowelstep3.wav,None,1000,10,3012819,320,217.285
C,5,2796802,sinestep3.wav,None,1000,10,3014819,322,219.285
C,5,2796802,vowelstep5.wav,None,1000,10,3016819,321,221.285
C,5,2796802,sinestep7.wav,None,1000,10,3018819,331,223.285
C,5,2796802,sinestep1.wav,None,1000,10,3020819,331,225.285
C,5,2796802,sinestep5_catch.wav,2,199,10,3022819,331,227.285
C,5,2796802,vowelstep7.wav,None,1000,10,3024820,1138,229.285
C,5,2796802,vowelstep3.wav,None,1000,10,3026820,320,231.285
C,5,2796802,silence.wav,None,1000,10,3028820,320,233.285
C,5,2796802,vowelstep1.wav,None,1000,10,3030820,321,235.285
C,5,2796802,sinestep5.wav,None,1000,10,3032819,325,237.285
C,5,2796802,sinestep1.wav,None,1000,10,3034819,329,239.285
C,5,2796802,vowelstep7.wav,None,1000,10,3036819,329,241.285
C,5,2796802,sinestep3.wav,None,1000,10,3038819,335,243.285
C,5,2796802,sinestep3.wav,None,1000,10,3040819,320,245.285
C,5,2796802,sinestep5.wav,None,1000,10,3042820,319,247.285
C,5,2796802,vowelstep3.wav,None,1000,10,3044820,318,249.285
C,5,2796802,sinestep3.wav,None,1000,10,3046820,329,251.285
C,5,2796802,silence.wav,None,1000,10,3048820,329,253.285
C,5,2796802,sinestep3.wav,None,1000,10,3050820,329,255.285
C,5,2796802,vowelstep1.wav,None,1000,10,3052820,310,257.285
C,5,2796802,silence.wav,None,1000,10,3054820,308,259.285
C,5,2796802,vowelstep1.wav,None,1000,10,3056820,315,261.285
C,5,2796802,silence.wav,None,1000,10,3058819,316,263.285
C,5,2796802,sinestep7.wav,None,1000,10,3060820,323,265.285
C,5,2796802,sinestep3.wav,None,1000,10,3062820,328,267.285
C,5,2796802,vowelstep1.wav,None,1000,10,3064820,327,269.285
C,5,2796802,sinestep7.wav,None,1000,10,3066820,337,271.285
C,5,2796802,sinestep7_catch.wav,2,288,10,3068820,317,273.285
C,5,2796802,vowelstep5.wav,None,1000,10,3070820,1028,275.285
C,5,2796802,silence.wav,None,1000,10,3072820,317,277.285
C,5,2796802,silence.wav,None,1000,10,3074820,327,279.285
C,5,2796802,sinestep3.wav,None,1000,10,3076821,322,281.285
C,5,2796802,vowelstep7.wav,None,1000,10,3078821,326,283.285
C,5,2796802,sinestep5.wav,None,1000,10,3080821,333,285.285
C,5,2796802,sinestep5.wav,None,1000,10,3082820,317,287.285
C,5,2796802,vowelstep3.wav,None,1000,10,3084820,315,289.285
C,5,2796802,sinestep3.wav,None,1000,10,3086820,337,291.285
C,5,2796802,silence.wav,None,1000,10,3088820,326,293.285
C,5,2796802,silence.wav,None,1000,10,3090820,328,295.285
C,5,2796802,vowelstep7.wav,None,1000,10,3092820,326,297.285
C,5,2796802,silence.wav,None,1000,10,3094821,336,299.285
C,5,2796802,vowelstep5.wav,None,1000,10,3096821,316,301.285
C,5,2796802,sinestep5.wav,None,1000,10,3098821,335,303.285
C,5,2796802,silence.wav,None,1000,10,3100821,345,305.285
C,5,2796802,silence.wav,None,1000,10,3102821,325,307.285
C,5,2796802,silence.wav,None,1000,10,3104821,325,309.285
C,5,2796802,sinestep7_catch.wav,2,264,10,3106820,325,311.285
C,5,2796802,sinestep7.wav,None,1000,10,3108820,1071,313.285
C,5,2796802,sinestep5_catch.wav,2,320,10,3110820,335,315.285
C,5,2796802,sinestep5.wav,None,1000,10,3112821,1014,317.285
C,5,2796802,sinestep3_catch.wav,2,168,10,3114821,335,319.285
I,6,3177099,vowelstep7.wav,None,1000,10,3177105,0,1.285
I,6,3177099,sinestep1_catch.wav,2,288,10,3179105,334,3.285
I,6,3177099,sinestep3.wav,None,1000,10,3181105,1056,5.285
I,6,3177099,silence.wav,None,1000,10,3183106,344,7.285
I,6,3177099,vowelstep7.wav,None,1000,10,3185106,343,9.285
I,6,3177099,sinestep3_catch.wav,2,105,10,3187105,327,11.285
I,6,3177099,vowelstep3.wav,None,1000,10,3189105,1228,13.285
I,6,3177099,vowelstep3.wav,None,1000,10,3191105,333,15.285
I,6,3177099,silence.wav,None,1000,10,3193105,338,17.285
I,6,3177099,vowelstep1.wav,None,1000,10,3195105,348,19.285
I,6,3177099,vowelstep5.wav,None,1000,10,3197105,347,21.285
I,6,3177099,vowelstep7.wav,None,1000,10,3199106,358,23.285
I,6,3177099,sinestep1.wav,None,1000,10,3201106,356,25.285
I,6,3177099,vowelstep1.wav,None,1000,10,3203106,336,27.285
I,6,3177099,sinestep5_catch.wav,2,865,10,3205106,337,29.285
I,6,3177099,sinestep5.wav,None,1000,10,3207106,471,31.285
I,6,3177099,vowelstep1.wav,None,1000,10,3209106,346,33.285
I,6,3177099,sinestep7.wav,None,1000,10,3211105,346,35.285
I,6,3177099,vowelstep3.wav,None,1000,10,3213105,346,37.285
I,6,3177099,vowelstep1.wav,None,1000,10,3215105,356,39.285
I,6,3177099,vowelstep1.wav,None,1000,10,3217106,336,41.285
I,6,3177099,sinestep3.wav,None,1000,10,3219106,335,43.285
I,6,3177099,sinestep5.wav,None,1000,10,3221106,335,45.285
I,6,3177099,sinestep5.wav,None,1000,10,3223106,345,47.285
I,6,3177099,vowelstep3.wav,None,1000,10,3225106,345,49.285
I,6,3177099,silence.wav,None,1000,10,3227106,356,51.285
I,6,3177099,sinestep7_catch.wav,2,152,10,3229106,356,53.285
I,6,3177099,silence.wav,None,1000,10,3231106,1179,55.285
I,6,3177099,sinestep1.wav,None,1000,10,3233106,337,57.285
I,6,3177099,vowelstep1.wav,None,1000,10,3235106,345,59.285
I,6,3177099,sinestep1.wav,None,1000,10,3237106,342,61.285
I,6,3177099,sinestep1.wav,None,1000,10,3239106,345,63.285
I,6,3177099,vowelstep7.wav,None,1000,10,3241106,344,65.285
I,6,3177099,sinestep5.wav,None,1000,10,3243106,352,67.285
I,6,3177099,sinestep5_catch.wav,2,163,10,3245106,334,69.285
I,6,3177099,vowelstep7.wav,None,1000,10,3247106,1168,71.285
I,6,3177099,vowelstep5.wav,None,1000,10,3249106,334,73.285
I,6,3177099,sinestep3.wav,None,1000,10,3251106,345,75.285
I,6,3177099,vowelstep1.wav,None,1000,10,3253107,343,77.285
I,6,3177099,sinestep3.wav,None,1000,10,3255107,344,79.285
I,6,3177099,sinestep5.wav,None,1000,10,3257107,354,81.285
I,6,3177099,sinestep5.wav,None,1000,10,3259106,324,83.285
I,6,3177099,vowelstep5.wav,None,1000,10,3261106,333,85.285
I,6,3177099,vowelstep7.wav,None,1000,10,3263106,335,87.285
I,6,3177099,sinestep3.wav,None,1000,10,3265106,341,89.285
I,6,3177099,vowelstep3.wav,None,1000,10,3267106,344,91.285
I,6,3177099,sinestep3.wav,None,1000,10,3269107,344,93.285
I,6,3177099,vowelstep5.wav,None,1000,10,3271107,322,95.285
I,6,3177099,sinestep7.wav,None,1000,10,3273107,324,97.285
I,6,3177099,sinestep3_catch.wav,None,1000,10,3275107,331,99.285
I,6,3177099,sinestep1_catch.wav,None,1000,10,3277107,333,101.285
I,6,3177099,vowelstep3.wav,None,1000,10,3279107,339,103.285
I,6,3177099,vowelstep3.wav,None,1000,10,3281107,342,105.285
I,6,3177099,vowelstep5.wav,None,1000,10,3283106,341,107.285
I,6,3177099,sinestep5.wav,None,1000,10,3285106,342,109.285
I,6,3177099,vowelstep5.wav,None,1000,10,3287107,333,111.285
I,6,3177099,vowelstep5.wav,None,1000,10,3289107,331,113.285
I,6,3177099,vowelstep1.wav,None,1000,10,3291107,325,115.285
I,6,3177099,vowelstep1_catch.wav,None,1000,10,3293107,331,117.285
I,6,3177099,sinestep7.wav,None,1000,10,3295107,342,119.285
I,6,3177099,vowelstep3.wav,None,1000,10,3297107,341,121.285
I,6,3177099,sinestep7.wav,2,710,10,3299107,352,123.285
I,6,3177099,sinestep7.wav,None,1000,10,3301107,622,125.285
I,6,3177099,vowelstep7.wav,None,1000,10,3303107,333,127.285
I,6,3177099,vowelstep3.wav,None,1000,10,3305108,332,129.285
I,6,3177099,sinestep5.wav,None,1000,10,3307107,341,131.285
I,6,3177099,sinestep5.wav,None,1000,10,3309107,338,133.285
I,6,3177099,vowelstep3.wav,None,1000,10,3311107,332,135.285
I,6,3177099,sinestep5.wav,None,1000,10,3313107,334,137.285
I,6,3177099,sinestep1.wav,None,1000,10,3315107,330,139.285
I,6,3177099,vowelstep7.wav,None,1000,10,3317107,329,141.285
I,6,3177099,silence.wav,None,1000,10,3319107,330,143.285
I,6,3177099,vowelstep7.wav,None,1000,10,3321107,328,145.285
I,6,3177099,silence.wav,None,1000,10,3323108,340,147.285
I,6,3177099,sinestep1.wav,None,1000,10,3325108,339,149.285
I,6,3177099,vowelstep1.wav,None,1000,10,3327108,339,151.285
I,6,3177099,vowelstep3.wav,None,1000,10,3329108,349,153.285
I,6,3177099,silence.wav,None,1000,10,3331108,326,155.285
I,6,3177099,silence.wav,None,1000,10,3333107,326,157.285
I,6,3177099,vowelstep1.wav,None,1000,10,3335107,329,159.285
I,6,3177099,sinestep1.wav,None,1000,10,3337107,337,161.285
I,6,3177099,vowelstep3_catch.wav,2,215,10,3339108,339,163.285
I,6,3177099,sinestep1.wav,None,1000,10,3341108,1121,165.285
I,6,3177099,vowelstep5.wav,None,1000,10,3343108,319,167.285
I,6,3177099,vowelstep5_catch.wav,2,232,10,3345108,319,169.285
I,6,3177099,sinestep1.wav,None,1000,10,3347108,1096,171.285
I,6,3177099,silence.wav,None,1000,10,3349108,326,173.285
I,6,3177099,vowelstep5.wav,None,1000,10,3351108,338,175.285
I,6,3177099,sinestep3.wav,None,1000,10,3353108,338,177.285
I,6,3177099,sinestep3.wav,None,1000,10,3355108,338,179.285
I,6,3177099,silence.wav,None,1000,10,3357108,348,181.285
I,6,3177099,silence.wav,None,1000,10,3359108,327,183.285
I,6,3177099,vowelstep3.wav,None,1000,10,3361108,327,185.285
I,6,3177099,vowelstep7.wav,None,1000,10,3363108,327,187.285
I,6,3177099,vowelstep7.wav,None,1000,10,3365108,337,189.285
I,6,3177099,silence.wav,None,1000,10,3367108,336,191.285
I,6,3177099,sinestep3.wav,None,1000,10,3369108,336,193.285
I,6,3177099,sinestep3.wav,None,1000,10,3371108,347,195.285
I,6,3177099,vowelstep5.wav,None,1000,10,3373108,324,197.285
I,6,3177099,vowelstep1.wav,None,1000,10,3375109,325,199.285
I,6,3177099,vowelstep1.wav,None,1000,10,3377109,322,201.285
I,6,3177099,sinestep5.wav,None,1000,10,3379109,336,203.285
I,6,3177099,silence.wav,None,1000,10,3381108,332,205.285
I,6,3177099,sinestep5.wav,None,1000,10,3383108,335,207.285
I,6,3177099,sinestep7.wav,None,1000,10,3385108,345,209.285
I,6,3177099,sinestep1.wav,None,1000,10,3387108,326,211.285
I,6,3177099,sinestep5.wav,None,1000,10,3389108,325,213.285
I,6,3177099,vowelstep5.wav,None,1000,10,3391108,326,215.285
I,6,3177099,sinestep7.wav,None,1000,10,3393109,335,217.285
I,6,3177099,sinestep5.wav,None,1000,10,3395109,333,219.285
I,6,3177099,sinestep3.wav,None,1000,10,3397109,335,221.285
I,6,3177099,silence.wav,None,1000,10,3399109,344,223.285
I,6,3177099,vowelstep7_catch.wav,2,691,10,3401109,325,225.285
I,6,3177099,sinestep7.wav,None,1000,10,3403109,633,227.285
I,6,3177099,sinestep7.wav,None,1000,10,3405108,325,229.285
I,6,3177099,sinestep3.wav,None,1000,10,3407108,325,231.285
I,6,3177099,vowelstep3.wav,None,1000,10,3409109,335,233.285
I,6,3177099,silence.wav,None,1000,10,3411109,334,235.285
I,6,3177099,sinestep3.wav,None,1000,10,3413109,344,237.285
I,6,3177099,sinestep5.wav,None,1000,10,3415109,343,239.285
I,6,3177099,silence.wav,None,1000,10,3417109,343,241.285
I,6,3177099,vowelstep3.wav,None,1000,10,3419109,343,243.285
I,6,3177099,sinestep1.wav,None,1000,10,3421109,353,245.285
I,6,3177099,sinestep1.wav,None,1000,10,3423109,334,247.285
I,6,3177099,sinestep7.wav,None,1000,10,3425109,333,249.285
I,6,3177099,vowelstep7.wav,None,1000,10,3427110,334,251.285
I,6,3177099,vowelstep5.wav,None,1000,10,3429109,315,253.285
I,6,3177099,silence.wav,None,1000,10,3431109,345,255.285
I,6,3177099,sinestep3.wav,None,1000,10,3433109,327,257.285
I,6,3177099,vowelstep1.wav,None,1000,10,3435109,323,259.285
I,6,3177099,vowelstep1.wav,None,1000,10,3437109,324,261.285
I,6,3177099,silence.wav,None,1000,10,3439109,334,263.285
I,6,3177099,vowelstep3.wav,None,1000,10,3441109,334,265.285
I,6,3177099,silence.wav,None,1000,10,3443109,337,267.285
I,6,3177099,silence.wav,None,1000,10,3445110,314,269.285
I,6,3177099,sinestep7.wav,None,1000,10,3447110,322,271.285
I,6,3177099,sinestep7.wav,None,1000,10,3449110,322,273.285
I,6,3177099,vowelstep5.wav,None,1000,10,3451110,325,275.285
I,6,3177099,silence.wav,None,1000,10,3453109,335,277.285
I,6,3177099,silence.wav,None,1000,10,3455109,335,279.285
I,6,3177099,sinestep1.wav,None,1000,10,3457109,335,281.285
I,6,3177099,silence.wav,None,1000,10,3459109,326,283.285
I,6,3177099,vowelstep7.wav,None,1000,10,3461109,324,285.285
I,6,3177099,vowelstep5_catch.wav,None,1000,10,3463110,325,287.285
I,6,3177099,sinestep7.wav,None,1000,10,3465110,324,289.285
I,6,3177099,sinestep1.wav,None,1000,10,3467110,334,291.285
I,6,3177099,vowelstep3_catch.wav,2,236,10,3469110,334,293.285
I,6,3177099,sinestep1.wav,None,1000,10,3471110,1096,295.285
I,6,3177099,vowelstep7.wav,None,1000,10,3473110,314,297.285
I,6,3177099,sinestep3.wav,None,1000,10,3475110,323,299.285
I,6,3177099,vowelstep5.wav,None,1000,10,3477109,324,301.285
I,6,3177099,vowelstep1_catch.wav,2,185,10,3479110,354,303.285
I,6,3177099,vowelstep7.wav,None,1000,10,3481110,1144,305.285
I,6,3177099,vowelstep5.wav,None,1000,10,3483110,333,307.285
I,6,3177099,sinestep1_catch.wav,2,195,10,3485110,332,309.285
I,6,3177099,silence.wav,None,1000,10,3487110,1131,311.285
I,6,3177099,sinestep7.wav,None,1000,10,3489110,344,313.285
I,6,3177099,silence.wav,None,1000,10,3491110,351,315.285
I,6,3177099,vowelstep1.wav,None,1000,10,3493110,351,317.285
I,6,3177099,sinestep7.wav,None,1000,10,3495110,322,319.285
G,7,3552834,vowelstep3.wav,None,1000,10,3552845,0,1.285
G,7,3552834,vowelstep3.wav,None,1000,10,3554845,312,3.285
G,7,3552834,vowelstep7.wav,None,1000,10,3556845,319,5.285
G,7,3552834,vowelstep3.wav,None,1000,10,3558844,318,7.285
G,7,3552834,sinestep5.wav,None,1000,10,3560844,328,9.285
G,7,3552834,sinestep1_catch.wav,2,224,10,3562844,333,11.285
G,7,3552834,silence.wav,None,1000,10,3564844,1117,13.285
G,7,3552834,silence.wav,None,1000,10,3566845,343,15.285
G,7,3552834,vowelstep7.wav,None,1000,10,3568845,342,17.285
G,7,3552834,vowelstep1.wav,None,1000,10,3570845,322,19.285
G,7,3552834,silence.wav,None,1000,10,3572845,321,21.285
G,7,3552834,sinestep1.wav,None,1000,10,3574845,332,23.285
G,7,3552834,vowelstep7.wav,None,1000,10,3576845,332,25.285
G,7,3552834,sinestep5.wav,None,1000,10,3578845,331,27.285
G,7,3552834,sinestep5.wav,None,1000,10,3580845,342,29.285
G,7,3552834,sinestep3.wav,None,1000,10,3582844,341,31.285
G,7,3552834,vowelstep3.wav,None,1000,10,3584845,341,33.285
G,7,3552834,silence.wav,None,1000,10,3586845,351,35.285
G,7,3552834,vowelstep1.wav,None,1000,10,3588845,330,37.285
G,7,3552834,sinestep7.wav,None,1000,10,3590845,331,39.285
G,7,3552834,vowelstep5.wav,None,1000,10,3592845,331,41.285
G,7,3552834,vowelstep3.wav,None,1000,10,3594845,331,43.285
G,7,3552834,sinestep1.wav,None,1000,10,3596845,342,45.285
G,7,3552834,sinestep7.wav,None,1000,10,3598845,340,47.285
G,7,3552834,sinestep1.wav,None,1000,10,3600845,321,49.285
G,7,3552834,sinestep5.wav,None,1000,10,3602846,329,51.285
G,7,3552834,vowelstep1.wav,None,1000,10,3604846,329,53.285
G,7,3552834,silence.wav,None,1000,10,3606845,331,55.285
G,7,3552834,sinestep5.wav,None,1000,10,3608845,340,57.285
G,7,3552834,vowelstep1.wav,None,1000,10,3610845,340,59.285
G,7,3552834,vowelstep3.wav,None,1000,10,3612845,340,61.285
G,7,3552834,sinestep3.wav,None,1000,10,3614845,340,63.285
G,7,3552834,sinestep1.wav,None,1000,10,3616845,329,65.285
G,7,3552834,vowelstep5.wav,None,1000,10,3618846,327,67.285
G,7,3552834,vowelstep3.wav,None,1000,10,3620846,325,69.285
G,7,3552834,vowelstep5.wav,None,1000,10,3622846,325,71.285
G,7,3552834,vowelstep7.wav,None,1000,10,3624846,334,73.285
G,7,3552834,vowelstep5.wav,None,1000,10,3626846,339,75.285
G,7,3552834,vowelstep5.wav,None,1000,10,3628846,338,77.285
G,7,3552834,sinestep3.wav,None,1000,10,3630845,329,79.285
G,7,3552834,sinestep3_catch.wav,2,77,10,3632845,329,81.285
G,7,3552834,sinestep5_catch.wav,2,194,10,3634845,1251,83.285
G,7,3552834,sinestep7.wav,None,1000,10,3636846,1144,85.285
G,7,3552834,sinestep7_catch.wav,2,174,10,3638846,337,87.285
G,7,3552834,sinestep7.wav,None,1000,10,3640846,1164,89.285
G,7,3552834,vowelstep1.wav,None,1000,10,3642846,338,91.285
G,7,3552834,vowelstep7.wav,None,1000,10,3644846,327,93.285
G,7,3552834,vowelstep3.wav,None,1000,10,3646846,327,95.285
G,7,3552834,sinestep3.wav,None,1000,10,3648846,327,97.285
G,7,3552834,sinestep1.wav,None,1000,10,3650846,328,99.285
G,7,3552834,sinestep1.wav,None,1000,10,3652846,338,101.285
G,7,3552834,sinestep5.wav,None,1000,10,3654847,335,103.285
G,7,3552834,vowelstep7.wav,None,1000,10,3656846,346,105.285
G,7,3552834,silence.wav,None,1000,10,3658846,346,107.285
G,7,3552834,sinestep3.wav,None,1000,10,3660846,326,109.285
G,7,3552834,vowelstep1.wav,None,1000,10,3662846,327,111.285
G,7,3552834,sinestep3.wav,None,1000,10,3664846,327,113.285
G,7,3552834,sinestep3.wav,None,1000,10,3666846,337,115.285
G,7,3552834,sinestep7.wav,None,1000,10,3668846,333,117.285
G,7,3552834,silence.wav,None,1000,10,3670846,336,119.285
G,7,3552834,vowelstep5.wav,None,1000,10,3672847,345,121.285
G,7,3552834,sinestep1_catch.wav,2,250,10,3674847,325,123.285
G,7,3552834,silence.wav,None,1000,10,3676847,1076,125.285
G,7,3552834,sinestep5.wav,None,1000,10,3678847,325,127.285
G,7,3552834,sinestep7.wav,None,1000,10,3680846,335,129.285
G,7,3552834,sinestep3.wav,None,1000,10,3682846,331,131.285
G,7,3552834,sinestep3.wav,None,1000,10,3684846,331,133.285
G,7,3552834,vowelstep5.wav,None,1000,10,3686846,340,135.285
G,7,3552834,sinestep3.wav,None,1000,10,3688847,320,137.285
G,7,3552834,sinestep3_catch.wav,2,231,10,3690847,323,139.285
G,7,3552834,vowelstep1.wav,None,1000,10,3692847,1092,141.285
G,7,3552834,vowelstep1.wav,None,1000,10,3694847,334,143.285
G,7,3552834,sinestep5.wav,None,1000,10,3696847,334,145.285
G,7,3552834,silence.wav,None,1000,10,3698847,335,147.285
G,7,3552834,sinestep3.wav,None,1000,10,3700847,314,149.285
G,7,3552834,silence.wav,None,1000,10,3702847,324,151.285
G,7,3552834,vowelstep3.wav,None,1000,10,3704846,324,153.285
G,7,3552834,sinestep5.wav,None,1000,10,3706847,324,155.285
G,7,3552834,vowelstep7.wav,None,1000,10,3708847,333,157.285
G,7,3552834,silence.wav,None,1000,10,3710847,333,159.285
G,7,3552834,sinestep5_catch.wav,2,350,10,3712847,333,161.285
G,7,3552834,vowelstep5.wav,None,1000,10,3714847,982,163.285
G,7,3552834,silence.wav,None,1000,10,3716847,322,165.285
G,7,3552834,vowelstep7.wav,None,1000,10,3718847,323,167.285
G,7,3552834,vowelstep1.wav,None,1000,10,3720847,323,169.285
G,7,3552834,vowelstep1.wav,None,1000,10,3722847,333,171.285
G,7,3552834,vowelstep1.wav,None,1000,10,3724848,333,173.285
G,7,3552834,sinestep5.wav,None,1000,10,3726848,331,175.285
G,7,3552834,vowelstep3.wav,None,1000,10,3728847,341,177.285
G,7,3552834,sinestep1.wav,None,1000,10,3730847,322,179.285
G,7,3552834,vowelstep1.wav,None,1000,10,3732847,321,181.285
G,7,3552834,sinestep1.wav,None,1000,10,3734847,323,183.285
G,7,3552834,sinestep7.wav,None,1000,10,3736847,332,185.285
G,7,3552834,sinestep7.wav,None,1000,10,3738847,332,187.285
G,7,3552834,sinestep3.wav,None,1000,10,3740847,328,189.285
G,7,3552834,sinestep5.wav,None,1000,10,3742848,341,191.285
G,7,3552834,silence.wav,None,1000,10,3744848,309,193.285
G,7,3552834,sinestep7_catch.wav,2,251,10,3746848,321,195.285
G,7,3552834,vowelstep7_catch.wav,2,291,10,3748848,1065,197.285
G,7,3552834,sinestep7.wav,None,1000,10,3750848,1024,199.285
G,7,3552834,silence.wav,None,1000,10,3752847,326,201.285
G,7,3552834,sinestep7.wav,None,1000,10,3754847,331,203.285
G,7,3552834,sinestep3.wav,None,1000,10,3756847,330,205.285
G,7,3552834,vowelstep7.wav,None,1000,10,3758848,340,207.285
G,7,3552834,sinestep1.wav,None,1000,10,3760848,320,209.285
G,7,3552834,silence.wav,None,1000,10,3762848,320,211.285
G,7,3552834,silence.wav,None,1000,10,3764848,319,213.285
G,7,3552834,vowelstep7.wav,None,1000,10,3766848,330,215.285
G,7,3552834,vowelstep5.wav,None,1000,10,3768848,331,217.285
G,7,3552834,sinestep7.wav,None,1000,10,3770848,340,219.285
G,7,3552834,vowelstep5.wav,None,1000,10,3772848,310,221.285
G,7,3552834,vowelstep5_catch.wav,2,459,10,3774848,319,223.285
G,7,3552834,vowelstep7.wav,None,1000,10,3776848,859,225.285
G,7,3552834,silence.wav,None,1000,10,3778848,329,227.285
G,7,3552834,silence.wav,None,1000,10,3780848,329,229.285
G,7,3552834,sinestep1.wav,None,1000,10,3782848,329,231.285
G,7,3552834,silence.wav,None,1000,10,3784848,328,233.285
G,7,3552834,vowelstep7.wav,None,1000,10,3786848,338,235.285
G,7,3552834,vowelstep5.wav,None,1000,10,3788848,314,237.285
G,7,3552834,vowelstep3.wav,None,1000,10,3790848,320,239.285
G,7,3552834,vowelstep3_catch.wav,2,270,10,3792848,318,241.285
G,7,3552834,sinestep1.wav,None,1000,10,3794849,1058,243.285
G,7,3552834,silence.wav,None,1000,10,3796849,327,245.285
G,7,3552834,sinestep7.wav,None,1000,10,3798849,328,247.285
G,7,3552834,sinestep1.wav,None,1000,10,3800848,338,249.285
G,7,3552834,sinestep3.wav,None,1000,10,3802848,338,251.285
G,7,3552834,vowelstep3.wav,None,1000,10,3804848,334,253.285
G,7,3552834,vowelstep1_catch.wav,2,341,10,3806848,318,255.285
G,7,3552834,sinestep7.wav,None,1000,10,3808848,986,257.285
G,7,3552834,silence.wav,None,1000,10,3810848,328,259.285
G,7,3552834,sinestep5.wav,None,1000,10,3812849,323,261.285
G,7,3552834,sinestep5.wav,None,1000,10,3814849,323,263.285
G,7,3552834,vowelstep5.wav,None,1000,10,3816849,312,265.285
G,7,3552834,sinestep5.wav,None,1000,10,3818849,317,267.285
G,7,3552834,sinestep7.wav,None,1000,10,3820849,345,269.285
G,7,3552834,silence.wav,None,1000,10,3822849,326,271.285
G,7,3552834,vowelstep7_catch.wav,2,212,10,3824848,326,273.285
G,7,3552834,vowelstep5.wav,None,1000,10,3826848,1114,275.285
G,7,3552834,silence.wav,None,1000,10,3828849,325,277.285
G,7,3552834,sinestep3.wav,None,1000,10,3830849,335,279.285
G,7,3552834,vowelstep5.wav,None,1000,10,3832849,336,281.285
G,7,3552834,silence.wav,None,1000,10,3834849,345,283.285
G,7,3552834,vowelstep1.wav,None,1000,10,3836849,323,285.285
G,7,3552834,sinestep1.wav,None,1000,10,3838849,325,287.285
G,7,3552834,vowelstep3.wav,None,1000,10,3840849,325,289.285
G,7,3552834,vowelstep7.wav,None,1000,10,3842849,326,291.285
G,7,3552834,vowelstep7.wav,None,1000,10,3844849,334,293.285
G,7,3552834,sinestep1.wav,None,1000,10,3846850,335,295.285
G,7,3552834,vowelstep5.wav,None,1000,10,3848849,344,297.285
G,7,3552834,silence.wav,None,1000,10,3850849,315,299.285
G,7,3552834,sinestep1.wav,None,1000,10,3852849,324,301.285
G,7,3552834,vowelstep7.wav,None,1000,10,3854849,324,303.285
G,7,3552834,vowelstep5_catch.wav,2,227,10,3856849,325,305.285
G,7,3552834,vowelstep3.wav,None,1000,10,3858849,1107,307.285
G,7,3552834,vowelstep3_catch.wav,2,271,10,3860849,335,309.285
G,7,3552834,sinestep7.wav,None,1000,10,3862849,1073,311.285
G,7,3552834,sinestep5.wav,None,1000,10,3864850,314,313.285
G,7,3552834,vowelstep1.wav,None,1000,10,3866850,324,315.285
G,7,3552834,vowelstep3.wav,None,1000,10,3868850,325,317.285
G,7,3552834,vowelstep1.wav,None,1000,10,3870850,333,319.285
B,8,3928037,vowelstep5.wav,None,1000,10,3928050,0,1.285
B,8,3928037,silence.wav,None,1000,10,3930050,320,3.285
B,8,3928037,sinestep7.wav,None,1000,10,3932050,319,5.285
B,8,3928037,vowelstep1_catch.wav,2,130,10,3934051,324,7.285
B,8,3928037,vowelstep7.wav,None,1000,10,3936051,1197,9.285
B,8,3928037,vowelstep3.wav,None,1000,10,3938051,332,11.285
B,8,3928037,vowelstep7.wav,None,1000,10,3940051,330,13.285
B,8,3928037,vowelstep5.wav,None,1000,10,3942051,342,15.285
B,8,3928037,vowelstep7.wav,None,1000,10,3944051,322,17.285
B,8,3928037,vowelstep3.wav,None,1000,10,3946050,323,19.285
B,8,3928037,silence.wav,None,1000,10,3948050,323,21.285
B,8,3928037,silence.wav,None,1000,10,3950050,332,23.285
B,8,3928037,sinestep5.wav,None,1000,10,3952051,333,25.285
B,8,3928037,sinestep1.wav,None,1000,10,3954051,341,27.285
B,8,3928037,vowelstep7.wav,None,1000,10,3956051,321,29.285
B,8,3928037,sinestep5.wav,None,1000,10,3958051,319,31.285
B,8,3928037,vowelstep1.wav,None,1000,10,3960051,318,33.285
B,8,3928037,vowelstep7.wav,None,1000,10,3962051,331,35.285
B,8,3928037,vowelstep3.wav,None,1000,10,3964051,326,37.285
B,8,3928037,sinestep5.wav,None,1000,10,3966051,327,39.285
B,8,3928037,vowelstep1.wav,None,1000,10,3968051,329,41.285
B,8,3928037,sinestep3.wav,None,1000,10,3970051,319,43.285
B,8,3928037,vowelstep5.wav,None,1000,10,3972051,320,45.285
B,8,3928037,vowelstep7.wav,None,1000,10,3974051,320,47.285
B,8,3928037,vowelstep3.wav,None,1000,10,3976051,321,49.285
B,8,3928037,sinestep7.wav,None,1000,10,3978051,330,51.285
B,8,3928037,sinestep3.wav,None,1000,10,3980051,330,53.285
B,8,3928037,sinestep1.wav,None,1000,10,3982051,331,55.285
B,8,3928037,sinestep1.wav,None,1000,10,3984051,340,57.285
B,8,3928037,sinestep5.wav,None,1000,10,3986052,320,59.285
B,8,3928037,vowelstep5.wav,None,1000,10,3988052,319,61.285
B,8,3928037,vowelstep3_catch.wav,2,247,10,3990052,320,63.285
B,8,3928037,vowelstep7.wav,None,1000,10,3992052,1082,65.285
B,8,3928037,sinestep1.wav,None,1000,10,3994052,326,67.285
B,8,3928037,vowelstep5.wav,None,1000,10,3996051,324,69.285
B,8,3928037,vowelstep5_catch.wav,2,187,10,3998051,304,71.285
B,8,3928037,vowelstep7.wav,None,1000,10,4000051,1126,73.285
B,8,3928037,sinestep3.wav,None,1000,10,4002051,319,75.285
B,8,3928037,vowelstep7_catch.wav,2,226,10,4004052,317,77.285
B,8,3928037,sinestep5.wav,None,1000,10,4006052,1102,79.285
B,8,3928037,vowelstep5.wav,None,1000,10,4008052,328,81.285
B,8,3928037,silence.wav,None,1000,10,4010052,328,83.285
B,8,3928037,silence.wav,None,1000,10,4012052,338,85.285
B,8,3928037,vowelstep3.wav,None,1000,10,4014052,318,87.285
B,8,3928037,silence.wav,None,1000,10,4016052,318,89.285
B,8,3928037,sinestep1.wav,None,1000,10,4018051,318,91.285
B,8,3928037,sinestep1.wav,None,1000,10,4020051,327,93.285
B,8,3928037,sinestep5.wav,None,1000,10,4022052,328,95.285
B,8,3928037,vowelstep7.wav,None,1000,10,4024052,328,97.285
B,8,3928037,sinestep5.wav,None,1000,10,4026052,337,99.285
B,8,3928037,sinestep5.wav,None,1000,10,4028052,316,101.285
B,8,3928037,silence.wav,None,1000,10,4030052,316,103.285
B,8,3928037,vowelstep1.wav,None,1000,10,4032052,317,105.285
B,8,3928037,silence.wav,None,1000,10,4034052,327,107.285
B,8,3928037,sinestep1.wav,None,1000,10,4036052,326,109.285
B,8,3928037,vowelstep7.wav,None,1000,10,4038052,327,111.285
B,8,3928037,silence.wav,None,1000,10,4040053,335,113.285
B,8,3928037,sinestep1.wav,None,1000,10,4042053,315,115.285
B,8,3928037,vowelstep3.wav,None,1000,10,4044052,335,117.285
B,8,3928037,vowelstep5.wav,None,1000,10,4046052,345,119.285
B,8,3928037,silence.wav,None,1000,10,4048052,326,121.285
B,8,3928037,sinestep3.wav,None,1000,10,4050052,327,123.285
B,8,3928037,sinestep5.wav,None,1000,10,4052052,325,125.285
B,8,3928037,silence.wav,None,1000,10,4054052,336,127.285
B,8,3928037,vowelstep5.wav,None,1000,10,4056053,336,129.285
B,8,3928037,sinestep3.wav,None,1000,10,4058053,332,131.285
B,8,3928037,sinestep5.wav,None,1000,10,4060053,310,133.285
B,8,3928037,sinestep5.wav,None,1000,10,4062053,319,135.285
B,8,3928037,sinestep7.wav,None,1000,10,4064053,320,137.285
B,8,3928037,sinestep7.wav,None,1000,10,4066053,324,139.285
B,8,3928037,vowelstep5.wav,None,1000,10,4068052,333,141.285
B,8,3928037,sinestep1.wav,None,1000,10,4070052,335,143.285
B,8,3928037,vowelstep7.wav,None,1000,10,4072052,334,145.285
B,8,3928037,sinestep7.wav,None,1000,10,4074053,335,147.285
B,8,3928037,vowelstep5.wav,None,1000,10,4076053,324,149.285
B,8,3928037,vowelstep1.wav,None,1000,10,4078053,323,151.285
B,8,3928037,sinestep3.wav,None,1000,10,4080053,323,153.285
B,8,3928037,silence.wav,None,1000,10,4082053,323,155.285
B,8,3928037,silence.wav,None,1000,10,4084053,334,157.285
B,8,3928037,sinestep7_catch.wav,2,232,10,4086053,333,159.285
B,8,3928037,vowelstep5.wav,None,1000,10,4088053,1110,161.285
B,8,3928037,sinestep7.wav,None,1000,10,4090053,314,163.285
B,8,3928037,vowelstep5.wav,None,1000,10,4092053,320,165.285
B,8,3928037,vowelstep3.wav,None,1000,10,4094053,322,167.285
B,8,3928037,silence.wav,None,1000,10,4096053,332,169.285
B,8,3928037,sinestep3.wav,None,1000,10,4098053,333,171.285
B,8,3928037,sinestep7_catch.wav,2,221,10,4100053,333,173.285
B,8,3928037,sinestep3.wav,None,1000,10,4102053,1110,175.285
B,8,3928037,sinestep5_catch.wav,2,189,10,4104053,322,177.285
B,8,3928037,vowelstep5.wav,None,1000,10,4106053,1133,179.285
B,8,3928037,silence.wav,None,1000,10,4108053,322,181.285
B,8,3928037,sinestep7.wav,None,1000,10,4110054,322,183.285
B,8,3928037,silence.wav,None,1000,10,4112054,331,185.285
B,8,3928037,sinestep3.wav,None,1000,10,4114054,332,187.285
B,8,3928037,silence.wav,None,1000,10,4116053,332,189.285
B,8,3928037,vowelstep7.wav,None,1000,10,4118053,312,191.285
B,8,3928037,vowelstep3.wav,None,1000,10,4120053,322,193.285
B,8,3928037,vowelstep3.wav,None,1000,10,4122053,319,195.285
B,8,3928037,sinestep7.wav,None,1000,10,4124053,317,197.285
B,8,3928037,sinestep7.wav,None,1000,10,4126054,326,199.285
B,8,3928037,sinestep3.wav,None,1000,10,4128054,326,201.285
B,8,3928037,sinestep3_catch.wav,2,201,10,4130054,330,203.285
B,8,3928037,sinestep1.wav,None,1000,10,4132054,1108,205.285
B,8,3928037,sinestep1.wav,None,1000,10,4134054,320,207.285
B,8,3928037,sinestep3.wav,None,1000,10,4136054,321,209.285
B,8,3928037,silence.wav,None,1000,10,4138054,321,211.285
B,8,3928037,silence.wav,None,1000,10,4140053,330,213.285
B,8,3928037,sinestep5_catch.wav,2,290,10,4142053,331,215.285
B,8,3928037,sinestep7.wav,None,1000,10,4144054,1040,217.285
B,8,3928037,sinestep7.wav,None,1000,10,4146054,340,219.285
B,8,3928037,vowelstep3.wav,None,1000,10,4148054,319,221.285
B,8,3928037,sinestep1_catch.wav,2,369,10,4150054,319,223.285
B,8,3928037,vowelstep5.wav,None,1000,10,4152054,949,225.285
B,8,3928037,sinestep1.wav,None,1000,10,4154054,329,227.285
B,8,3928037,vowelstep1.wav,None,1000,10,4156054,329,229.285
B,8,3928037,vowelstep1.wav,None,1000,10,4158054,327,231.285
B,8,3928037,sinestep5.wav,None,1000,10,4160054,339,233.285
B,8,3928037,silence.wav,None,1000,10,4162055,320,235.285
B,8,3928037,silence.wav,None,1000,10,4164055,318,237.285
B,8,3928037,vowelstep1.wav,None,1000,10,4166054,319,239.285
B,8,3928037,vowelstep1.wav,None,1000,10,4168054,329,241.285
B,8,3928037,silence.wav,None,1000,10,4170054,328,243.285
B,8,3928037,vowelstep1_catch.wav,2,236,10,4172054,328,245.285
B,8,3928037,sinestep7.wav,None,1000,10,4174054,1092,247.285
B,8,3928037,sinestep1.wav,None,1000,10,4176054,318,249.285
B,8,3928037,vowelstep1.wav,None,1000,10,4178054,318,251.285
B,8,3928037,vowelstep3.wav,None,1000,10,4180055,317,253.285
B,8,3928037,sinestep3.wav,None,1000,10,4182055,317,255.285
B,8,3928037,silence.wav,None,1000,10,4184055,323,257.285
B,8,3928037,vowelstep3.wav,None,1000,10,4186055,328,259.285
B,8,3928037,silence.wav,None,1000,10,4188055,332,261.285
B,8,3928037,vowelstep3.wav,None,1000,10,4190054,313,263.285
B,8,3928037,sinestep5.wav,None,1000,10,4192054,312,265.285
B,8,3928037,vowelstep3_catch.wav,2,269,10,4194054,317,267.285
B,8,3928037,sinestep3.wav,None,1000,10,4196055,1055,269.285
B,8,3928037,sinestep1.wav,None,1000,10,4198055,328,271.285
B,8,3928037,vowelstep3.wav,None,1000,10,4200055,322,273.285
B,8,3928037,vowelstep1.wav,None,1000,10,4202055,326,275.285
B,8,3928037,vowelstep5_catch.wav,2,289,10,4204055,316,277.285
B,8,3928037,vowelstep1.wav,None,1000,10,4206055,1026,279.285
B,8,3928037,vowelstep5.wav,None,1000,10,4208055,316,281.285
B,8,3928037,sinestep7.wav,None,1000,10,4210055,317,283.285
B,8,3928037,vowelstep7.wav,None,1000,10,4212054,326,285.285
B,8,3928037,vowelstep1_catch.wav,2,212,10,4214055,326,287.285
B,8,3928037,sinestep1.wav,None,1000,10,4216055,1112,289.285
B,8,3928037,vowelstep1.wav,None,1000,10,4218055,333,291.285
B,8,3928037,sinestep5.wav,None,1000,10,4220055,314,293.285
B,8,3928037,vowelstep7.wav,None,1000,10,4222055,315,295.285
B,8,3928037,sinestep7.wav,None,1000,10,4224055,315,297.285
B,8,3928037,vowelstep7_catch.wav,2,174,10,4226055,325,299.285
B,8,3928037,sinestep3.wav,None,1000,10,4228055,1150,301.285
B,8,3928037,vowelstep3.wav,None,1000,10,4230055,335,303.285
B,8,3928037,sinestep5.wav,None,1000,10,4232056,335,305.285
B,8,3928037,vowelstep1.wav,None,1000,10,4234056,314,307.285
B,8,3928037,vowelstep7.wav,None,1000,10,4236056,314,309.285
B,8,3928037,vowelstep1.wav,None,1000,10,4238055,314,311.285
B,8,3928037,sinestep7.wav,None,1000,10,4240055,324,313.285
B,8,3928037,sinestep3.wav,None,1000,10,4242055,324,315.285
B,8,3928037,silence.wav,None,1000,10,4244055,324,317.285
B,8,3928037,vowelstep1.wav,None,1000,10,4246055,334,319.285
F,9,4319158,sinestep1.wav,None,1000,10,4319174,0,1.285
F,9,4319158,vowelstep5.wav,None,1000,10,4321174,340,3.285
F,9,4319158,vowelstep3.wav,None,1000,10,4323174,316,5.285
F,9,4319158,sinestep5.wav,None,1000,10,4325174,316,7.285
F,9,4319158,vowelstep7.wav,None,1000,10,4327173,315,9.285
F,9,4319158,silence.wav,None,1000,10,4329173,331,11.285
F,9,4319158,vowelstep5.wav,None,1000,10,4331173,330,13.285
F,9,4319158,sinestep3.wav,None,1000,10,4333173,331,15.285
F,9,4319158,sinestep3.wav,None,1000,10,4335173,311,17.285
F,9,4319158,silence.wav,None,1000,10,4337174,319,19.285
F,9,4319158,vowelstep7.wav,None,1000,10,4339174,318,21.285
F,9,4319158,vowelstep7.wav,None,1000,10,4341174,319,23.285
F,9,4319158,vowelstep1_catch.wav,1,402,10,4343174,328,25.285
F,9,4319158,vowelstep3_catch.wav,1,440,10,4345174,927,27.285
F,9,4319158,vowelstep1.wav,None,1000,10,4347174,888,29.285
F,9,4319158,sinestep5.wav,None,1000,10,4349173,338,31.285
F,9,4319158,sinestep5.wav,None,1000,10,4351173,319,33.285
F,9,4319158,vowelstep7.wav,None,1000,10,4353174,319,35.285
F,9,4319158,sinestep3.wav,None,1000,10,4355174,317,37.285
F,9,4319158,sinestep7.wav,None,1000,10,4357174,328,39.285
F,9,4319158,vowelstep5_catch.wav,1,378,10,4359174,328,41.285
F,9,4319158,sinestep1.wav,None,1000,10,4361174,950,43.285
F,9,4319158,vowelstep7_catch.wav,1,294,10,4363174,338,45.285
F,9,4319158,vowelstep3.wav,None,1000,10,4365174,1013,47.285
F,9,4319158,sinestep1.wav,None,1000,10,4367174,318,49.285
F,9,4319158,sinestep7.wav,None,1000,10,4369174,319,51.285
F,9,4319158,silence.wav,None,1000,10,4371175,328,53.285
F,9,4319158,sinestep7.wav,None,1000,10,4373175,325,55.285
F,9,4319158,vowelstep1.wav,None,1000,10,4375174,326,57.285
F,9,4319158,vowelstep3.wav,None,1000,10,4377174,337,59.285
F,9,4319158,vowelstep7_catch.wav,1,251,10,4379174,317,61.285
F,9,4319158,sinestep5.wav,None,1000,10,4381174,1065,63.285
F,9,4319158,sinestep3.wav,None,1000,10,4383174,313,65.285
F,9,4319158,vowelstep3.wav,None,1000,10,4385174,317,67.285
F,9,4319158,silence.wav,None,1000,10,4387174,322,69.285
F,9,4319158,vowelstep1.wav,None,1000,10,4389175,322,71.285
F,9,4319158,vowelstep1.wav,None,1000,10,4391175,331,73.285
F,9,4319158,vowelstep5_catch.wav,1,275,10,4393175,316,75.285
F,9,4319158,silence.wav,None,1000,10,4395175,1039,77.285
F,9,4319158,vowelstep3.wav,None,1000,10,4397175,316,79.285
F,9,4319158,vowelstep5.wav,None,1000,10,4399174,325,81.285
F,9,4319158,vowelstep3_catch.wav,1,419,10,4401174,325,83.285
F,9,4319158,vowelstep3.wav,None,1000,10,4403174,906,85.285
F,9,4319158,sinestep7.wav,None,1000,10,4405174,325,87.285
F,9,4319158,vowelstep1.wav,None,1000,10,4407175,304,89.285
F,9,4319158,sinestep1.wav,None,1000,10,4409175,315,91.285
F,9,4319158,vowelstep1_catch.wav,1,179,10,4411175,314,93.285
F,9,4319158,vowelstep5.wav,None,1000,10,4413175,1134,95.285
F,9,4319158,sinestep7.wav,None,1000,10,4415175,324,97.285
F,9,4319158,vowelstep7.wav,None,1000,10,4417175,325,99.285
F,9,4319158,vowelstep3.wav,None,1000,10,4419175,325,101.285
F,9,4319158,sinestep3.wav,None,1000,10,4421175,334,103.285
F,9,4319158,silence.wav,None,1000,10,4423175,314,105.285
F,9,4319158,sinestep1.wav,None,1000,10,4425175,314,107.285
F,9,4319158,sinestep1.wav,None,1000,10,4427175,313,109.285
F,9,4319158,silence.wav,None,1000,10,4429175,324,111.285
F,9,4319158,sinestep7.wav,None,1000,10,4431175,323,113.285
F,9,4319158,vowelstep3.wav,None,1000,10,4433175,324,115.285
F,9,4319158,sinestep3.wav,None,1000,10,4435175,303,117.285
F,9,4319158,vowelstep3.wav,None,1000,10,4437175,313,119.285
F,9,4319158,vowelstep7.wav,None,1000,10,4439175,313,121.285
F,9,4319158,vowelstep7.wav,None,1000,10,4441176,323,123.285
F,9,4319158,vowelstep5.wav,None,1000,10,4443176,323,125.285
F,9,4319158,sinestep1.wav,None,1000,10,4445176,318,127.285
F,9,4319158,silence.wav,None,1000,10,4447175,322,129.285
F,9,4319158,sinestep1.wav,None,1000,10,4449175,329,131.285
F,9,4319158,sinestep3.wav,None,1000,10,4451175,328,133.285
F,9,4319158,sinestep1_catch.wav,1,263,10,4453175,328,135.285
F,9,4319158,sinestep3.wav,None,1000,10,4455175,1045,137.285
F,9,4319158,sinestep3.wav,None,1000,10,4457175,323,139.285
F,9,4319158,silence.wav,None,1000,10,4459176,322,141.285
F,9,4319158,silence.wav,None,1000,10,4461176,321,143.285
F,9,4319158,sinestep7.wav,None,1000,10,4463176,331,145.285
F,9,4319158,sinestep5.wav,None,1000,10,4465176,311,147.285
F,9,4319158,vowelstep1.wav,None,1000,10,4467176,331,149.285
F,9,4319158,sinestep7.wav,None,1000,10,4469176,322,151.285
F,9,4319158,silence.wav,None,1000,10,4471175,321,153.285
F,9,4319158,sinestep3_catch.wav,1,248,10,4473175,321,155.285
F,9,4319158,vowelstep5.wav,None,1000,10,4475175,1072,157.285
F,9,4319158,sinestep3.wav,None,1000,10,4477176,330,159.285
F,9,4319158,vowelstep5.wav,None,1000,10,4479176,331,161.285
F,9,4319158,sinestep3.wav,None,1000,10,4481176,330,163.285
F,9,4319158,vowelstep3.wav,None,1000,10,4483176,340,165.285
F,9,4319158,vowelstep1.wav,None,1000,10,4485176,320,167.285
F,9,4319158,sinestep5.wav,None,1000,10,4487176,321,169.285
F,9,4319158,vowelstep5.wav,None,1000,10,4489176,271,171.285
F,9,4319158,vowelstep1.wav,None,1000,10,4491176,330,173.285
F,9,4319158,vowelstep1.wav,None,1000,10,4493177,330,175.285
F,9,4319158,sinestep7.wav,None,1000,10,4495176,329,177.285
F,9,4319158,vowelstep1.wav,None,1000,10,4497176,339,179.285
F,9,4319158,sinestep5.wav,None,1000,10,4499176,309,181.285
F,9,4319158,vowelstep7.wav,None,1000,10,4501176,319,183.285
F,9,4319158,sinestep1.wav,None,1000,10,4503176,319,185.285
F,9,4319158,vowelstep7.wav,None,1000,10,4505176,326,187.285
F,9,4319158,sinestep5.wav,None,1000,10,4507176,329,189.285
F,9,4319158,vowelstep5.wav,None,1000,10,4509176,329,191.285
F,9,4319158,silence.wav,None,1000,10,4511177,335,193.285
F,9,4319158,sinestep7.wav,None,1000,10,4513177,339,195.285
F,9,4319158,vowelstep5.wav,None,1000,10,4515177,314,197.285
F,9,4319158,vowelstep7.wav,None,1000,10,4517177,314,199.285
F,9,4319158,silence.wav,None,1000,10,4519177,313,201.285
F,9,4319158,vowelstep1.wav,None,1000,10,4521176,329,203.285
F,9,4319158,vowelstep7.wav,None,1000,10,4523176,327,205.285
F,9,4319158,vowelstep7.wav,None,1000,10,4525176,339,207.285
F,9,4319158,vowelstep3.wav,None,1000,10,4527176,308,209.285
F,9,4319158,vowelstep3.wav,None,1000,10,4529177,318,211.285
F,9,4319158,silence.wav,None,1000,10,4531177,316,213.285
F,9,4319158,sinestep7.wav,None,1000,10,4533177,327,215.285
F,9,4319158,sinestep1.wav,None,1000,10,4535177,327,217.285
F,9,4319158,silence.wav,None,1000,10,4537177,328,219.285
F,9,4319158,vowelstep1.wav,None,1000,10,4539177,328,221.285
F,9,4319158,sinestep5_catch.wav,1,278,10,4541177,337,223.285
F,9,4319158,sinestep1.wav,None,1000,10,4543177,1038,225.285
F,9,4319158,silence.wav,None,1000,10,4545176,317,227.285
F,9,4319158,sinestep7.wav,None,1000,10,4547177,326,229.285
F,9,4319158,sinestep7.wav,None,1000,10,4549177,326,231.285
F,9,4319158,silence.wav,None,1000,10,4551177,327,233.285
F,9,4319158,vowelstep5.wav,None,1000,10,4553160,334,235.285
F,9,4319158,sinestep7.wav,None,1000,10,4555177,319,237.285
F,9,4319158,sinestep5.wav,None,1000,10,4557177,317,239.285
F,9,4319158,sinestep5.wav,None,1000,10,4559177,314,241.285
F,9,4319158,silence.wav,None,1000,10,4561177,316,243.285
F,9,4319158,vowelstep3.wav,None,1000,10,4563178,325,245.285
F,9,4319158,vowelstep3.wav,None,1000,10,4565178,325,247.285
F,9,4319158,silence.wav,None,1000,10,4567178,325,249.285
F,9,4319158,sinestep1.wav,None,1000,10,4569161,301,251.285
F,9,4319158,sinestep1.wav,None,1000,10,4571161,336,253.285
F,9,4319158,vowelstep5.wav,None,1000,10,4573177,335,255.285
F,9,4319158,silence.wav,None,1000,10,4575177,314,257.285
F,9,4319158,sinestep5.wav,None,1000,10,4577177,325,259.285
F,9,4319158,sinestep5.wav,None,1000,10,4579177,321,261.285
F,9,4319158,sinestep5.wav,None,1000,10,4581178,320,263.285
F,9,4319158,sinestep7.wav,None,1000,10,4583178,329,265.285
F,9,4319158,sinestep7_catch.wav,1,198,10,4585161,315,267.285
F,9,4319158,sinestep7_catch.wav,1,76,10,4587161,1134,269.285
F,9,4319158,sinestep1.wav,None,1000,10,4589161,1267,271.285
F,9,4319158,vowelstep7.wav,None,1000,10,4591178,343,273.285
F,9,4319158,sinestep3.wav,None,1000,10,4593177,324,275.285
F,9,4319158,sinestep3.wav,None,1000,10,4595177,324,277.285
F,9,4319158,silence.wav,None,1000,10,4597177,304,279.285
F,9,4319158,sinestep5_catch.wav,1,275,10,4599178,314,281.285
F,9,4319158,sinestep5.wav,None,1000,10,4601161,1037,283.285
F,9,4319158,silence.wav,None,1000,10,4603161,343,285.285
F,9,4319158,vowelstep5.wav,None,1000,10,4605161,343,287.285
F,9,4319158,silence.wav,None,1000,10,4607161,343,289.285
F,9,4319158,sinestep1.wav,None,1000,10,4609178,323,291.285
F,9,4319158,sinestep3.wav,None,1000,10,4611178,332,293.285
F,9,4319158,vowelstep3.wav,None,1000,10,4613178,314,295.285
F,9,4319158,silence.wav,None,1000,10,4615178,312,297.285
F,9,4319158,sinestep5.wav,None,1000,10,4617162,312,299.285
F,9,4319158,vowelstep5.wav,None,1000,10,4619162,342,301.285
F,9,4319158,vowelstep5.wav,None,1000,10,4621162,341,303.285
F,9,4319158,vowelstep1.wav,None,1000,10,4623162,341,305.285
F,9,4319158,sinestep3.wav,None,1000,10,4625161,331,307.285
F,9,4319158,silence.wav,None,1000,10,4627161,331,309.285
F,9,4319158,sinestep3_catch.wav,1,224,10,4629178,332,311.285
F,9,4319158,vowelstep1.wav,None,1000,10,4631178,1087,313.285
F,9,4319158,vowelstep7.wav,None,1000,10,4633162,320,315.285
F,9,4319158,vowelstep7.wav,None,1000,10,4635162,341,317.285
F,9,4319158,vowelstep1.wav,None,1000,10,4637162,351,319.285