block,count_main_sequence,first_trial_timestamp,fname,response_catch_response,response_time_catch_response,subject_nr,time_stimulus,time_to_pad,timing
P,NA,299366,vowelstep1_catch.wav,None,1000,17,299385,0,
P,NA,299366,sinestep7_catch.wav,None,1000,17,301385,431,
P,NA,299366,vowelstep5_catch.wav,None,1000,17,303384,432,
P,NA,299366,sinestep7.wav,None,1000,17,305384,430,
P,NA,299366,sinestep7.wav,None,1000,17,307385,439,
P,NA,299366,sinestep3.wav,None,1000,17,309385,439,
P,NA,299366,sinestep1.wav,None,1000,17,311385,450,
P,NA,299366,vowelstep7.wav,None,1000,17,313385,420,
P,NA,299366,vowelstep3.wav,None,1000,17,315385,430,
P,NA,299366,silence.wav,None,1000,17,317385,429,
P,NA,299366,sinestep1.wav,None,1000,17,319385,441,
P,NA,299366,vowelstep1.wav,None,1000,17,321385,441,
P,NA,299366,sinestep5.wav,None,1000,17,323369,441,
P,NA,299366,sinestep1.wav,None,1000,17,325369,440,
P,NA,299366,sinestep1.wav,None,1000,17,327385,449,
P,NA,299366,vowelstep1.wav,None,1000,17,329385,430,
P,NA,299366,silence.wav,None,1000,17,331385,429,
P,NA,299366,silence.wav,None,1000,17,333385,429,
P,NA,299366,silence.wav,None,1000,17,335385,440,
P,NA,299366,sinestep3_catch.wav,2,318,17,337385,439,
P,NA,299366,vowelstep7.wav,None,1000,17,339385,1131,
P,NA,299366,silence.wav,None,1000,17,341369,449,
P,NA,299366,vowelstep7.wav,None,1000,17,343369,447,
P,NA,299366,vowelstep3.wav,None,1000,17,345369,447,
P,NA,299366,silence.wav,None,1000,17,347369,458,
P,NA,299366,vowelstep1.wav,None,1000,17,349386,414,
P,NA,299366,sinestep3.wav,None,1000,17,351369,437,
P,NA,299366,vowelstep1.wav,None,1000,17,353385,465,
P,NA,299366,silence.wav,None,1000,17,355385,448,
P,NA,299366,sinestep7.wav,None,1000,17,357385,428,
P,NA,299366,sinestep5_catch.wav,2,474,17,359369,427,
P,NA,299366,silence.wav,None,1000,17,361369,980,
P,NA,299366,sinestep7.wav,None,1000,17,363369,455,
P,NA,299366,sinestep5.wav,None,1000,17,365369,458,
P,NA,299366,sinestep3.wav,None,1000,17,367369,467,
P,NA,299366,sinestep1_catch.wav,2,316,17,369369,446,
P,NA,299366,vowelstep3_catch.wav,None,1000,17,371386,1131,
P,NA,299366,vowelstep5_catch.wav,2,465,17,373369,426,
P,NA,299366,vowelstep7.wav,None,1000,17,375386,990,
P,NA,299366,silence.wav,None,1000,17,377370,436,
P,NA,299366,vowelstep7_catch.wav,2,478,17,379370,456,
P,NA,299366,vowelstep3.wav,None,1000,17,381370,985,
P,NA,299366,silence.wav,None,1000,17,383370,445,
P,NA,299366,sinestep7_catch.wav,2,285,17,385369,446,
P,NA,299366,sinestep7.wav,None,1000,17,387369,1161,
P,NA,299366,vowelstep5.wav,None,1000,17,389369,456,
P,NA,299366,vowelstep3.wav,None,1000,17,391369,456,
P,NA,299366,sinestep5.wav,None,1000,17,393370,455,
P,NA,299366,sinestep5_catch.wav,2,267,17,395370,465,
P,NA,299366,sinestep3.wav,None,1000,17,397370,1168,
P,NA,299366,silence.wav,None,1000,17,399370,445,
P,NA,299366,vowelstep7.wav,None,1000,17,401370,445,
P,NA,299366,sinestep3_catch.wav,2,254,17,403370,454,
P,NA,299366,vowelstep5.wav,None,1000,17,405370,1200,
P,NA,299366,silence.wav,None,1000,17,407370,455,
P,NA,299366,sinestep1.wav,None,1000,17,409369,465,
P,NA,299366,vowelstep1.wav,None,1000,17,411370,444,
P,NA,299366,silence.wav,None,1000,17,413370,441,
P,NA,299366,silence.wav,None,1000,17,415370,440,
P,NA,299366,silence.wav,None,1000,17,417370,450,
P,NA,299366,sinestep1_catch.wav,2,265,17,419370,448,
P,NA,299366,sinestep1.wav,None,1000,17,421370,1179,
P,NA,299366,silence.wav,None,1000,17,423370,459,
P,NA,299366,vowelstep1_catch.wav,2,462,17,425370,427,
P,NA,299366,vowelstep5.wav,None,1000,17,427370,971,
P,NA,299366,sinestep5.wav,None,1000,17,429371,436,
P,NA,299366,vowelstep3.wav,None,1000,17,431371,436,
P,NA,299366,silence.wav,None,1000,17,433370,447,
P,NA,299366,silence.wav,None,1000,17,435370,446,
P,NA,299366,sinestep7.wav,None,1000,17,437370,456,
P,NA,299366,vowelstep5.wav,None,1000,17,439370,426,
P,NA,299366,silence.wav,None,1000,17,441370,437,
P,NA,299366,vowelstep3_catch.wav,2,469,17,443370,436,
P,NA,299366,silence.wav,None,1000,17,445371,973,
P,NA,299366,vowelstep5.wav,None,1000,17,447371,446,
P,NA,299366,vowelstep5_catch.wav,2,348,17,449371,445,
P,NA,299366,vowelstep7_catch.wav,2,434,17,451371,1097,
P,NA,299366,sinestep3.wav,None,1000,17,453371,1001,
P,NA,299366,vowelstep5.wav,None,1000,17,455371,435,
P,NA,299366,vowelstep3.wav,None,1000,17,457370,434,
P,NA,299366,silence.wav,None,1000,17,459370,436,
P,NA,299366,sinestep3.wav,None,1000,17,461370,445,
P,NA,299366,silence.wav,None,1000,17,463371,445,
P,NA,299366,sinestep7_catch.wav,2,419,17,465371,454,
P,NA,299366,sinestep5_catch.wav,2,395,17,467371,1003,
P,NA,299366,sinestep5.wav,None,1000,17,469371,1039,
P,NA,299366,sinestep5.wav,None,1000,17,471371,439,
P,NA,299366,vowelstep7.wav,None,1000,17,473371,441,
P,NA,299366,sinestep3_catch.wav,2,271,17,475371,451,
P,NA,299366,vowelstep1.wav,None,1000,17,477371,1180,
I,0,875533,vowelstep7.wav,None,1000,17,875544,0,1.285
I,0,875533,sinestep1_catch.wav,2,222,17,877544,354,3.285
I,0,875533,sinestep3.wav,None,1000,17,879544,1119,5.285
I,0,875533,silence.wav,None,1000,17,881544,340,7.285
I,0,875533,vowelstep7.wav,None,1000,17,883545,341,9.285
I,0,875533,sinestep3_catch.wav,2,280,17,885545,349,11.285
I,0,875533,vowelstep3.wav,None,1000,17,887544,1047,13.285
I,0,875533,vowelstep3.wav,None,1000,17,889544,349,15.285
I,0,875533,silence.wav,None,1000,17,891544,356,17.285
I,0,875533,vowelstep1.wav,None,1000,17,893544,339,19.285
I,0,875533,vowelstep5.wav,None,1000,17,895544,339,21.285
I,0,875533,vowelstep7.wav,None,1000,17,897544,339,23.285
I,0,875533,sinestep1.wav,None,1000,17,899544,348,25.285
I,0,875533,vowelstep1.wav,None,1000,17,901545,346,27.285
I,0,875533,sinestep5_catch.wav,2,105,17,903545,346,29.285
I,0,875533,sinestep5.wav,None,1000,17,905545,1223,31.285
I,0,875533,vowelstep1.wav,None,1000,17,907545,338,33.285
I,0,875533,sinestep7.wav,None,1000,17,909545,336,35.285
I,0,875533,vowelstep3.wav,None,1000,17,911545,337,37.285
I,0,875533,vowelstep1.wav,None,1000,17,913544,348,39.285
I,0,875533,vowelstep1.wav,None,1000,17,915544,347,41.285
I,0,875533,sinestep3.wav,None,1000,17,917545,348,43.285
I,0,875533,sinestep5.wav,None,1000,17,919545,347,45.285
I,0,875533,sinestep5.wav,None,1000,17,921545,337,47.285
I,0,875533,vowelstep3.wav,None,1000,17,923545,336,49.285
I,0,875533,silence.wav,None,1000,17,925545,337,51.285
I,0,875533,sinestep7_catch.wav,2,147,17,927545,345,53.285
I,0,875533,silence.wav,None,1000,17,929545,1197,55.285
I,0,875533,sinestep1.wav,None,1000,17,931545,347,57.285
I,0,875533,vowelstep1.wav,None,1000,17,933545,355,59.285
I,0,875533,sinestep1.wav,None,1000,17,935546,338,61.285
I,0,875533,sinestep1.wav,None,1000,17,937545,335,63.285
I,0,875533,vowelstep7.wav,None,1000,17,939545,336,65.285
I,0,875533,sinestep5.wav,None,1000,17,941545,346,67.285
I,0,875533,sinestep5_catch.wav,2,201,17,943545,346,69.285
I,0,875533,vowelstep7.wav,None,1000,17,945545,1145,71.285
I,0,875533,vowelstep5.wav,None,1000,17,947545,356,73.285
I,0,875533,sinestep3.wav,None,1000,17,949545,337,75.285
I,0,875533,vowelstep1.wav,None,1000,17,951545,337,77.285
I,0,875533,sinestep3.wav,None,1000,17,953546,334,79.285
I,0,875533,sinestep5.wav,None,1000,17,955546,342,81.285
I,0,875533,sinestep5.wav,None,1000,17,957546,345,83.285
I,0,875533,vowelstep5.wav,None,1000,17,959546,345,85.285
I,0,875533,vowelstep7.wav,None,1000,17,961545,345,87.285
I,0,875533,sinestep3.wav,None,1000,17,963545,353,89.285
I,0,875533,vowelstep3.wav,None,1000,17,965545,333,91.285
I,0,875533,sinestep3.wav,None,1000,17,967545,335,93.285
I,0,875533,vowelstep5.wav,None,1000,17,969545,335,95.285
I,0,875533,sinestep7.wav,None,1000,17,971546,304,97.285
I,0,875533,sinestep3_catch.wav,2,113,17,973546,343,99.285
I,0,875533,sinestep1_catch.wav,2,263,17,975546,1230,101.285
I,0,875533,vowelstep3.wav,None,1000,17,977546,1061,103.285
I,0,875533,vowelstep3.wav,None,1000,17,979546,333,105.285
I,0,875533,vowelstep5.wav,None,1000,17,981546,334,107.285
I,0,875533,sinestep5.wav,None,1000,17,983546,334,109.285
I,0,875533,vowelstep5.wav,None,1000,17,985545,344,111.285
I,0,875533,vowelstep5.wav,None,1000,17,987546,344,113.285
I,0,875533,vowelstep1.wav,None,1000,17,989546,342,115.285
I,0,875533,vowelstep1_catch.wav,2,252,17,991546,350,117.285
I,0,875533,sinestep7.wav,None,1000,17,993546,1080,119.285
I,0,875533,vowelstep3.wav,None,1000,17,995546,332,121.285
I,0,875533,sinestep7.wav,None,1000,17,997546,332,123.285
I,0,875533,sinestep7.wav,None,1000,17,999546,343,125.285
I,0,875533,vowelstep7.wav,None,1000,17,1001546,342,127.285
I,0,875533,vowelstep3.wav,None,1000,17,1003546,343,129.285
I,0,875533,sinestep5.wav,None,1000,17,1005547,322,131.285
I,0,875533,sinestep5.wav,None,1000,17,1007547,332,133.285
I,0,875533,vowelstep3.wav,None,1000,17,1009546,332,135.285
I,0,875533,sinestep5.wav,None,1000,17,1011546,332,137.285
I,0,875533,sinestep1.wav,None,1000,17,1013546,343,139.285
I,0,875533,vowelstep7.wav,None,1000,17,1015546,342,141.285
I,0,875533,silence.wav,None,1000,17,1017546,341,143.285
I,0,875533,vowelstep7.wav,None,1000,17,1019546,351,145.285
I,0,875533,silence.wav,None,1000,17,1021546,331,147.285
I,0,875533,sinestep1.wav,None,1000,17,1023547,332,149.285
I,0,875533,vowelstep1.wav,None,1000,17,1025547,331,151.285
I,0,875533,vowelstep3.wav,None,1000,17,1027547,331,153.285
I,0,875533,silence.wav,None,1000,17,1029547,341,155.285
I,0,875533,silence.wav,None,1000,17,1031547,341,157.285
I,0,875533,vowelstep1.wav,None,1000,17,1033546,351,159.285
I,0,875533,sinestep1.wav,None,1000,17,1035546,330,161.285
I,0,875533,vowelstep3_catch.wav,2,257,17,1037546,330,163.285
I,0,875533,sinestep1.wav,None,1000,17,1039546,1074,165.285
I,0,875533,vowelstep5.wav,None,1000,17,1041547,340,167.285
I,0,875533,vowelstep5_catch.wav,2,278,17,1043547,340,169.285
I,0,875533,sinestep1.wav,None,1000,17,1045547,1061,171.285
I,0,875533,silence.wav,None,1000,17,1047547,350,173.285
I,0,875533,vowelstep5.wav,None,1000,17,1049547,282,175.285
I,0,875533,sinestep3.wav,None,1000,17,1051547,329,177.285
I,0,875533,sinestep3.wav,None,1000,17,1053547,328,179.285
I,0,875533,silence.wav,None,1000,17,1055547,340,181.285
I,0,875533,silence.wav,None,1000,17,1057548,340,183.285
I,0,875533,vowelstep3.wav,None,1000,17,1059547,339,185.285
I,0,875533,vowelstep7.wav,None,1000,17,1061547,339,187.285
I,0,875533,vowelstep7.wav,None,1000,17,1063547,349,189.285
I,0,875533,silence.wav,None,1000,17,1065547,329,191.285
I,0,875533,sinestep3.wav,None,1000,17,1067547,328,193.285
I,0,875533,sinestep3.wav,None,1000,17,1069547,329,195.285
I,0,875533,vowelstep5.wav,None,1000,17,1071547,339,197.285
I,0,875533,vowelstep1.wav,None,1000,17,1073547,337,199.285
I,0,875533,vowelstep1.wav,None,1000,17,1075548,348,201.285
I,0,875533,sinestep5.wav,None,1000,17,1077548,318,203.285
I,0,875533,silence.wav,None,1000,17,1079548,328,205.285
I,0,875533,sinestep5.wav,None,1000,17,1081548,327,207.285
I,0,875533,sinestep7.wav,None,1000,17,1083547,337,209.285
I,0,875533,sinestep1.wav,None,1000,17,1085547,338,211.285
I,0,875533,sinestep5.wav,None,1000,17,1087547,337,213.285
I,0,875533,vowelstep5.wav,None,1000,17,1089547,338,215.285
I,0,875533,sinestep7.wav,None,1000,17,1091547,318,217.285
I,0,875533,sinestep5.wav,None,1000,17,1093548,328,219.285
I,0,875533,sinestep3.wav,None,1000,17,1095548,327,221.285
I,0,875533,silence.wav,None,1000,17,1097548,326,223.285
I,0,875533,vowelstep7_catch.wav,2,202,17,1099548,337,225.285
I,0,875533,sinestep7.wav,None,1000,17,1101548,1134,227.285
I,0,875533,sinestep7.wav,None,1000,17,1103548,345,229.285
I,0,875533,sinestep3.wav,None,1000,17,1105548,347,231.285
I,0,875533,vowelstep3.wav,None,1000,17,1107547,322,233.285
I,0,875533,silence.wav,None,1000,17,1109547,347,235.285
I,0,875533,sinestep3.wav,None,1000,17,1111548,326,237.285
I,0,875533,sinestep5.wav,None,1000,17,1113548,335,239.285
I,0,875533,silence.wav,None,1000,17,1115548,336,241.285
I,0,875533,vowelstep3.wav,None,1000,17,1117548,335,243.285
I,0,875533,sinestep1.wav,None,1000,17,1119548,345,245.285
I,0,875533,sinestep1.wav,None,1000,17,1121548,325,247.285
I,0,875533,sinestep7.wav,None,1000,17,1123548,324,249.285
I,0,875533,vowelstep7.wav,None,1000,17,1125548,354,251.285
I,0,875533,vowelstep5.wav,None,1000,17,1127549,336,253.285
I,0,875533,silence.wav,None,1000,17,1129549,335,255.285
I,0,875533,sinestep3.wav,None,1000,17,1131548,335,257.285
I,0,875533,vowelstep1.wav,None,1000,17,1133548,335,259.285
I,0,875533,vowelstep1.wav,None,1000,17,1135548,345,261.285
I,0,875533,silence.wav,None,1000,17,1137548,344,263.285
I,0,875533,vowelstep3.wav,None,1000,17,1139548,324,265.285
I,0,875533,silence.wav,None,1000,17,1141548,335,267.285
I,0,875533,silence.wav,None,1000,17,1143548,335,269.285
I,0,875533,sinestep7.wav,None,1000,17,1145549,335,271.285
I,0,875533,sinestep7.wav,None,1000,17,1147549,344,273.285
I,0,875533,vowelstep5.wav,None,1000,17,1149549,343,275.285
I,0,875533,silence.wav,None,1000,17,1151549,344,277.285
I,0,875533,silence.wav,None,1000,17,1153549,350,279.285
I,0,875533,sinestep1.wav,None,1000,17,1155548,333,281.285
I,0,875533,silence.wav,None,1000,17,1157548,333,283.285
I,0,875533,vowelstep7.wav,None,1000,17,1159548,333,285.285
I,0,875533,vowelstep5_catch.wav,2,612,17,1161548,334,287.285
I,0,875533,sinestep7.wav,None,1000,17,1163549,731,289.285
I,0,875533,sinestep1.wav,None,1000,17,1165549,343,291.285
I,0,875533,vowelstep3_catch.wav,2,245,17,1167549,353,293.285
I,0,875533,sinestep1.wav,None,1000,17,1169549,1087,295.285
I,0,875533,vowelstep7.wav,None,1000,17,1171549,332,297.285
I,0,875533,sinestep3.wav,None,1000,17,1173549,333,299.285
I,0,875533,vowelstep5.wav,None,1000,17,1175549,342,301.285
I,0,875533,vowelstep1_catch.wav,2,243,17,1177549,341,303.285
I,0,875533,vowelstep7.wav,None,1000,17,1179549,1099,305.285
I,0,875533,vowelstep5.wav,None,1000,17,1181549,341,307.285
I,0,875533,sinestep1_catch.wav,2,314,17,1183549,331,309.285
I,0,875533,silence.wav,None,1000,17,1185549,1016,311.285
I,0,875533,sinestep7.wav,None,1000,17,1187549,332,313.285
I,0,875533,silence.wav,None,1000,17,1189549,341,315.285
I,0,875533,vowelstep1.wav,None,1000,17,1191549,341,317.285
I,0,875533,sinestep7.wav,None,1000,17,1193549,341,319.285
E,1,1255521,vowelstep7.wav,None,1000,17,1255534,0,1.285
E,1,1255521,sinestep3.wav,None,1000,17,1257534,334,3.285
E,1,1255521,sinestep5.wav,None,1000,17,1259534,345,5.285
E,1,1255521,sinestep1.wav,None,1000,17,1261533,343,7.285
E,1,1255521,sinestep5.wav,None,1000,17,1263533,345,9.285
E,1,1255521,silence.wav,None,1000,17,1265533,325,11.285
E,1,1255521,vowelstep1.wav,None,1000,17,1267534,334,13.285
E,1,1255521,vowelstep7.wav,None,1000,17,1269534,335,15.285
E,1,1255521,vowelstep1.wav,None,1000,17,1271534,334,17.285
E,1,1255521,sinestep1_catch.wav,2,148,17,1273534,334,19.285
E,1,1255521,vowelstep5.wav,None,1000,17,1275534,1195,21.285
E,1,1255521,sinestep5.wav,None,1000,17,1277534,344,23.285
E,1,1255521,vowelstep5.wav,None,1000,17,1279534,354,25.285
E,1,1255521,vowelstep3.wav,None,1000,17,1281534,334,27.285
E,1,1255521,sinestep1.wav,None,1000,17,1283534,331,29.285
E,1,1255521,vowelstep5.wav,None,1000,17,1285534,334,31.285
E,1,1255521,silence.wav,None,1000,17,1287534,333,33.285
E,1,1255521,silence.wav,None,1000,17,1289534,343,35.285
E,1,1255521,sinestep3.wav,None,1000,17,1291534,343,37.285
E,1,1255521,sinestep3.wav,None,1000,17,1293534,353,39.285
E,1,1255521,sinestep3.wav,None,1000,17,1295534,323,41.285
E,1,1255521,sinestep1.wav,None,1000,17,1297534,333,43.285
E,1,1255521,vowelstep1.wav,None,1000,17,1299534,333,45.285
E,1,1255521,sinestep1.wav,None,1000,17,1301534,333,47.285
E,1,1255521,vowelstep7.wav,None,1000,17,1303535,341,49.285
E,1,1255521,vowelstep5.wav,None,1000,17,1305535,343,51.285
E,1,1255521,sinestep7.wav,None,1000,17,1307535,342,53.285
E,1,1255521,sinestep1.wav,None,1000,17,1309535,352,55.285
E,1,1255521,vowelstep5.wav,None,1000,17,1311534,333,57.285
E,1,1255521,sinestep3.wav,None,1000,17,1313534,332,59.285
E,1,1255521,vowelstep1.wav,None,1000,17,1315534,331,61.285
E,1,1255521,vowelstep5.wav,None,1000,17,1317534,342,63.285
E,1,1255521,vowelstep3.wav,None,1000,17,1319535,341,65.285
E,1,1255521,sinestep1.wav,None,1000,17,1321535,351,67.285
E,1,1255521,vowelstep3.wav,None,1000,17,1323535,321,69.285
E,1,1255521,silence.wav,None,1000,17,1325535,331,71.285
E,1,1255521,vowelstep3.wav,None,1000,17,1327535,331,73.285
E,1,1255521,sinestep3_catch.wav,2,239,17,1329535,341,75.285
E,1,1255521,sinestep3.wav,None,1000,17,1331535,1101,77.285
E,1,1255521,vowelstep3.wav,None,1000,17,1333535,341,79.285
E,1,1255521,vowelstep7.wav,None,1000,17,1335534,341,81.285
E,1,1255521,silence.wav,None,1000,17,1337535,349,83.285
E,1,1255521,sinestep3.wav,None,1000,17,1339535,330,85.285
E,1,1255521,silence.wav,None,1000,17,1341535,330,87.285
E,1,1255521,sinestep1.wav,None,1000,17,1343535,329,89.285
E,1,1255521,sinestep5_catch.wav,2,298,17,1345535,340,91.285
E,1,1255521,vowelstep3.wav,None,1000,17,1347535,1041,93.285
E,1,1255521,sinestep5.wav,None,1000,17,1349535,340,95.285
E,1,1255521,vowelstep7.wav,None,1000,17,1351535,349,97.285
E,1,1255521,sinestep1.wav,None,1000,17,1353535,330,99.285
E,1,1255521,sinestep5.wav,None,1000,17,1355536,330,101.285
E,1,1255521,sinestep5.wav,None,1000,17,1357536,328,103.285
E,1,1255521,vowelstep7.wav,None,1000,17,1359535,334,105.285
E,1,1255521,vowelstep3.wav,None,1000,17,1361535,338,107.285
E,1,1255521,vowelstep7.wav,None,1000,17,1363535,339,109.285
E,1,1255521,sinestep5.wav,None,1000,17,1365535,349,111.285
E,1,1255521,vowelstep3.wav,None,1000,17,1367535,318,113.285
E,1,1255521,vowelstep7.wav,None,1000,17,1369535,327,115.285
E,1,1255521,sinestep3.wav,None,1000,17,1371535,329,117.285
E,1,1255521,vowelstep7.wav,None,1000,17,1373536,338,119.285
E,1,1255521,silence.wav,None,1000,17,1375536,338,121.285
E,1,1255521,silence.wav,None,1000,17,1377536,339,123.285
E,1,1255521,sinestep7.wav,None,1000,17,1379536,337,125.285
E,1,1255521,sinestep7_catch.wav,2,209,17,1381536,326,127.285
E,1,1255521,sinestep7.wav,None,1000,17,1383535,1119,129.285
E,1,1255521,silence.wav,None,1000,17,1385535,328,131.285
E,1,1255521,sinestep7_catch.wav,2,247,17,1387535,337,133.285
E,1,1255521,sinestep7.wav,None,1000,17,1389536,1089,135.285
E,1,1255521,sinestep5_catch.wav,2,180,17,1391536,337,137.285
E,1,1255521,sinestep1.wav,None,1000,17,1393536,1166,139.285
E,1,1255521,sinestep1.wav,None,1000,17,1395536,327,141.285
E,1,1255521,sinestep1.wav,None,1000,17,1397536,326,143.285
E,1,1255521,sinestep3.wav,None,1000,17,1399536,326,145.285
E,1,1255521,vowelstep5.wav,None,1000,17,1401536,333,147.285
E,1,1255521,silence.wav,None,1000,17,1403536,336,149.285
E,1,1255521,sinestep3_catch.wav,2,176,17,1405536,336,151.285
E,1,1255521,silence.wav,None,1000,17,1407536,1155,153.285
E,1,1255521,sinestep7.wav,None,1000,17,1409536,326,155.285
E,1,1255521,sinestep5.wav,None,1000,17,1411536,324,157.285
E,1,1255521,silence.wav,None,1000,17,1413536,323,159.285
E,1,1255521,vowelstep5.wav,None,1000,17,1415536,325,161.285
E,1,1255521,vowelstep1.wav,None,1000,17,1417536,335,163.285
E,1,1255521,vowelstep3.wav,None,1000,17,1419536,335,165.285
E,1,1255521,sinestep5.wav,None,1000,17,1421536,345,167.285
E,1,1255521,sinestep7.wav,None,1000,17,1423536,345,169.285
E,1,1255521,vowelstep1.wav,None,1000,17,1425537,326,171.285
E,1,1255521,vowelstep7.wav,None,1000,17,1427537,325,173.285
E,1,1255521,sinestep3.wav,None,1000,17,1429537,325,175.285
E,1,1255521,silence.wav,None,1000,17,1431536,327,177.285
E,1,1255521,sinestep1_catch.wav,2,388,17,1433536,335,179.285
E,1,1255521,sinestep7.wav,None,1000,17,1435536,943,181.285
E,1,1255521,vowelstep1.wav,None,1000,17,1437536,315,183.285
E,1,1255521,sinestep5.wav,None,1000,17,1439536,345,185.285
E,1,1255521,sinestep5.wav,None,1000,17,1441536,325,187.285
E,1,1255521,vowelstep1.wav,None,1000,17,1443537,324,189.285
E,1,1255521,sinestep7.wav,None,1000,17,1445537,333,191.285
E,1,1255521,sinestep3.wav,None,1000,17,1447537,333,193.285
E,1,1255521,sinestep7.wav,None,1000,17,1449537,334,195.285
E,1,1255521,silence.wav,None,1000,17,1451537,342,197.285
E,1,1255521,vowelstep1.wav,None,1000,17,1453537,343,199.285
E,1,1255521,sinestep1.wav,None,1000,17,1455537,344,201.285
E,1,1255521,vowelstep1.wav,None,1000,17,1457536,323,203.285
E,1,1255521,vowelstep1.wav,None,1000,17,1459537,333,205.285
E,1,1255521,vowelstep1_catch.wav,2,242,17,1461537,331,207.285
E,1,1255521,vowelstep1.wav,None,1000,17,1463537,1089,209.285
E,1,1255521,vowelstep1.wav,None,1000,17,1465537,343,211.285
E,1,1255521,silence.wav,None,1000,17,1467537,342,213.285
E,1,1255521,sinestep7.wav,None,1000,17,1469537,342,215.285
E,1,1255521,vowelstep7.wav,None,1000,17,1471537,342,217.285
E,1,1255521,vowelstep3_catch.wav,2,539,17,1473537,332,219.285
E,1,1255521,vowelstep5.wav,None,1000,17,1475537,793,221.285
E,1,1255521,sinestep3.wav,None,1000,17,1477538,332,223.285
E,1,1255521,silence.wav,None,1000,17,1479538,331,225.285
E,1,1255521,sinestep1.wav,None,1000,17,1481537,341,227.285
E,1,1255521,sinestep5.wav,None,1000,17,1483537,340,229.285
E,1,1255521,sinestep5.wav,None,1000,17,1485537,351,231.285
E,1,1255521,sinestep3.wav,None,1000,17,1487537,330,233.285
E,1,1255521,sinestep5.wav,None,1000,17,1489537,328,235.285
E,1,1255521,vowelstep3.wav,None,1000,17,1491537,331,237.285
E,1,1255521,sinestep7.wav,None,1000,17,1493537,341,239.285
E,1,1255521,sinestep7.wav,None,1000,17,1495538,341,241.285
E,1,1255521,silence.wav,None,1000,17,1497538,339,243.285
E,1,1255521,sinestep3.wav,None,1000,17,1499538,349,245.285
E,1,1255521,sinestep3.wav,None,1000,17,1501538,330,247.285
E,1,1255521,vowelstep3.wav,None,1000,17,1503538,330,249.285
E,1,1255521,silence.wav,None,1000,17,1505537,331,251.285
E,1,1255521,sinestep7.wav,None,1000,17,1507537,340,253.285
E,1,1255521,silence.wav,None,1000,17,1509537,340,255.285
E,1,1255521,vowelstep7.wav,None,1000,17,1511537,337,257.285
E,1,1255521,vowelstep3.wav,None,1000,17,1513538,349,259.285
E,1,1255521,silence.wav,None,1000,17,1515538,349,261.285
E,1,1255521,vowelstep3.wav,None,1000,17,1517538,329,263.285
E,1,1255521,vowelstep1.wav,None,1000,17,1519538,329,265.285
E,1,1255521,vowelstep5.wav,None,1000,17,1521538,329,267.285
E,1,1255521,silence.wav,None,1000,17,1523538,339,269.285
E,1,1255521,vowelstep3.wav,None,1000,17,1525538,339,271.285
E,1,1255521,sinestep1.wav,None,1000,17,1527538,349,273.285
E,1,1255521,vowelstep5_catch.wav,2,269,17,1529538,319,275.285
E,1,1255521,sinestep7.wav,None,1000,17,1531538,1059,277.285
E,1,1255521,sinestep7.wav,None,1000,17,1533538,327,279.285
E,1,1255521,vowelstep7.wav,None,1000,17,1535538,337,281.285
E,1,1255521,silence.wav,None,1000,17,1537538,336,283.285
E,1,1255521,sinestep5.wav,None,1000,17,1539538,337,285.285
E,1,1255521,silence.wav,None,1000,17,1541538,347,287.285
E,1,1255521,silence.wav,None,1000,17,1543538,326,289.285
E,1,1255521,vowelstep5.wav,None,1000,17,1545538,327,291.285
E,1,1255521,vowelstep5.wav,None,1000,17,1547539,327,293.285
E,1,1255521,silence.wav,None,1000,17,1549539,336,295.285
E,1,1255521,vowelstep5.wav,None,1000,17,1551539,336,297.285
E,1,1255521,vowelstep7_catch.wav,2,374,17,1553538,336,299.285
E,1,1255521,vowelstep7_catch.wav,2,190,17,1555538,968,301.285
E,1,1255521,vowelstep5.wav,None,1000,17,1557538,1135,303.285
E,1,1255521,sinestep1.wav,None,1000,17,1559538,326,305.285
E,1,1255521,vowelstep3.wav,None,1000,17,1561538,326,307.285
E,1,1255521,vowelstep5_catch.wav,None,1000,17,1563538,335,309.285
E,1,1255521,vowelstep7.wav,None,1000,17,1565539,335,311.285
E,1,1255521,vowelstep5.wav,None,1000,17,1567539,334,313.285
E,1,1255521,vowelstep7.wav,None,1000,17,1569539,334,315.285
E,1,1255521,vowelstep1.wav,None,1000,17,1571539,325,317.285
E,1,1255521,vowelstep3_catch.wav,None,1000,17,1573539,324,319.285
J,2,1631631,sinestep5_catch.wav,2,525,17,1631639,0,1.285
J,2,1631631,sinestep5.wav,None,1000,17,1633639,815,3.285
J,2,1631631,sinestep3.wav,None,1000,17,1635640,341,5.285
J,2,1631631,sinestep1.wav,None,1000,17,1637640,321,7.285
J,2,1631631,sinestep7.wav,None,1000,17,1639640,321,9.285
J,2,1631631,vowelstep3.wav,None,1000,17,1641640,330,11.285
J,2,1631631,sinestep1.wav,None,1000,17,1643640,330,13.285
J,2,1631631,vowelstep5.wav,None,1000,17,1645640,340,15.285
J,2,1631631,vowelstep3.wav,None,1000,17,1647640,340,17.285
J,2,1631631,vowelstep1.wav,None,1000,17,1649640,341,19.285
J,2,1631631,vowelstep1.wav,None,1000,17,1651639,120,21.285
J,2,1631631,sinestep3.wav,None,1000,17,1653640,349,23.285
J,2,1631631,silence.wav,None,1000,17,1655640,348,25.285
J,2,1631631,vowelstep7.wav,None,1000,17,1657640,330,27.285
J,2,1631631,sinestep3.wav,None,1000,17,1659640,340,29.285
J,2,1631631,sinestep7.wav,None,1000,17,1661640,339,31.285
J,2,1631631,silence.wav,None,1000,17,1663640,339,33.285
J,2,1631631,vowelstep5.wav,None,1000,17,1665640,349,35.285
J,2,1631631,sinestep1.wav,None,1000,17,1667640,349,37.285
J,2,1631631,sinestep1_catch.wav,2,189,17,1669641,349,39.285
J,2,1631631,sinestep7.wav,None,1000,17,1671641,1139,41.285
J,2,1631631,vowelstep7.wav,None,1000,17,1673641,339,43.285
J,2,1631631,sinestep3_catch.wav,2,157,17,1675640,338,45.285
J,2,1631631,vowelstep3.wav,None,1000,17,1677640,1177,47.285
J,2,1631631,vowelstep7.wav,None,1000,17,1679640,348,49.285
J,2,1631631,sinestep1.wav,None,1000,17,1681640,348,51.285
J,2,1631631,vowelstep3.wav,None,1000,17,1683640,348,53.285
J,2,1631631,vowelstep1.wav,None,1000,17,1685640,358,55.285
J,2,1631631,sinestep5.wav,None,1000,17,1687641,338,57.285
J,2,1631631,sinestep5_catch.wav,2,219,17,1689641,339,59.285
J,2,1631631,sinestep5.wav,None,1000,17,1691641,1116,61.285
J,2,1631631,vowelstep7.wav,None,1000,17,1693641,347,63.285
J,2,1631631,sinestep7.wav,None,1000,17,1695641,347,65.285
J,2,1631631,vowelstep1.wav,None,1000,17,1697641,348,67.285
J,2,1631631,sinestep7_catch.wav,None,1000,17,1699640,347,69.285
J,2,1631631,silence.wav,None,1000,17,1701640,327,71.285
J,2,1631631,vowelstep5.wav,None,1000,17,1703640,336,73.285
J,2,1631631,sinestep5.wav,None,1000,17,1705641,338,75.285
J,2,1631631,sinestep5.wav,None,1000,17,1707641,335,77.285
J,2,1631631,vowelstep3.wav,None,1000,17,1709641,346,79.285
J,2,1631631,vowelstep5.wav,None,1000,17,1711641,346,81.285
J,2,1631631,sinestep3.wav,None,1000,17,1713641,346,83.285
J,2,1631631,silence.wav,None,1000,17,1715641,336,85.285
J,2,1631631,vowelstep3.wav,None,1000,17,1717641,336,87.285
J,2,1631631,vowelstep7.wav,None,1000,17,1719641,336,89.285
J,2,1631631,silence.wav,None,1000,17,1721642,337,91.285
J,2,1631631,sinestep3.wav,None,1000,17,1723641,347,93.285
J,2,1631631,silence.wav,None,1000,17,1725641,345,95.285
J,2,1631631,sinestep1.wav,None,1000,17,1727641,343,97.285
J,2,1631631,sinestep5_catch.wav,2,140,17,1729641,318,99.285
J,2,1631631,sinestep7.wav,None,1000,17,1731641,1194,101.285
J,2,1631631,sinestep5.wav,None,1000,17,1733641,335,103.285
J,2,1631631,sinestep5.wav,None,1000,17,1735641,345,105.285
J,2,1631631,sinestep3.wav,None,1000,17,1737641,345,107.285
J,2,1631631,sinestep3_catch.wav,None,1000,17,1739642,343,109.285
J,2,1631631,sinestep3.wav,None,1000,17,1741642,344,111.285
J,2,1631631,silence.wav,None,1000,17,1743642,334,113.285
J,2,1631631,sinestep1.wav,None,1000,17,1745642,333,115.285
J,2,1631631,silence.wav,None,1000,17,1747641,333,117.285
J,2,1631631,vowelstep3.wav,None,1000,17,1749641,334,119.285
J,2,1631631,vowelstep5.wav,None,1000,17,1751641,344,121.285
J,2,1631631,vowelstep7.wav,None,1000,17,1753641,344,123.285
J,2,1631631,silence.wav,None,1000,17,1755641,343,125.285
J,2,1631631,sinestep1.wav,None,1000,17,1757642,354,127.285
J,2,1631631,sinestep3.wav,None,1000,17,1759642,333,129.285
J,2,1631631,sinestep7.wav,None,1000,17,1761642,333,131.285
J,2,1631631,silence.wav,None,1000,17,1763642,332,133.285
J,2,1631631,sinestep1.wav,None,1000,17,1765642,342,135.285
J,2,1631631,vowelstep7.wav,None,1000,17,1767642,311,137.285
J,2,1631631,sinestep5.wav,None,1000,17,1769642,343,139.285
J,2,1631631,vowelstep1.wav,None,1000,17,1771642,352,141.285
J,2,1631631,vowelstep7.wav,None,1000,17,1773641,332,143.285
J,2,1631631,vowelstep3.wav,None,1000,17,1775642,315,145.285
J,2,1631631,vowelstep3.wav,None,1000,17,1777642,333,147.285
J,2,1631631,sinestep7.wav,None,1000,17,1779642,342,149.285
J,2,1631631,vowelstep5.wav,None,1000,17,1781642,341,151.285
J,2,1631631,silence.wav,None,1000,17,1783642,342,153.285
J,2,1631631,sinestep1.wav,None,1000,17,1785642,352,155.285
J,2,1631631,sinestep3.wav,None,1000,17,1787642,331,157.285
J,2,1631631,silence.wav,None,1000,17,1789642,331,159.285
J,2,1631631,sinestep1.wav,None,1000,17,1791643,331,161.285
J,2,1631631,vowelstep7.wav,None,1000,17,1793643,329,163.285
J,2,1631631,vowelstep7.wav,None,1000,17,1795643,339,165.285
J,2,1631631,sinestep1_catch.wav,2,91,17,1797642,341,167.285
J,2,1631631,vowelstep1_catch.wav,2,389,17,1799642,1259,169.285
J,2,1631631,vowelstep1.wav,None,1000,17,1801642,932,171.285
J,2,1631631,vowelstep7.wav,None,1000,17,1803642,330,173.285
J,2,1631631,sinestep1.wav,None,1000,17,1805642,330,175.285
J,2,1631631,vowelstep5.wav,None,1000,17,1807642,331,177.285
J,2,1631631,vowelstep5.wav,None,1000,17,1809643,340,179.285
J,2,1631631,sinestep5.wav,None,1000,17,1811643,339,181.285
J,2,1631631,sinestep7.wav,None,1000,17,1813643,350,183.285
J,2,1631631,sinestep7.wav,None,1000,17,1815643,347,185.285
J,2,1631631,sinestep1.wav,None,1000,17,1817643,330,187.285
J,2,1631631,vowelstep1.wav,None,1000,17,1819643,329,189.285
J,2,1631631,silence.wav,None,1000,17,1821642,329,191.285
J,2,1631631,sinestep5.wav,None,1000,17,1823642,315,193.285
J,2,1631631,vowelstep5.wav,None,1000,17,1825642,339,195.285
J,2,1631631,vowelstep1.wav,None,1000,17,1827643,349,197.285
J,2,1631631,vowelstep1.wav,None,1000,17,1829643,319,199.285
J,2,1631631,sinestep3.wav,None,1000,17,1831643,323,201.285
J,2,1631631,sinestep3.wav,None,1000,17,1833643,328,203.285
J,2,1631631,silence.wav,None,1000,17,1835643,338,205.285
J,2,1631631,sinestep5.wav,None,1000,17,1837643,337,207.285
J,2,1631631,vowelstep1.wav,None,1000,17,1839643,338,209.285
J,2,1631631,vowelstep5.wav,None,1000,17,1841643,338,211.285
J,2,1631631,vowelstep3.wav,None,1000,17,1843643,318,213.285
J,2,1631631,vowelstep3.wav,None,1000,17,1845643,327,215.285
J,2,1631631,silence.wav,None,1000,17,1847643,327,217.285
J,2,1631631,sinestep1.wav,None,1000,17,1849643,338,219.285
J,2,1631631,vowelstep3.wav,None,1000,17,1851643,337,221.285
J,2,1631631,sinestep7.wav,None,1000,17,1853643,338,223.285
J,2,1631631,vowelstep7.wav,None,1000,17,1855643,336,225.285
J,2,1631631,silence.wav,None,1000,17,1857643,347,227.285
J,2,1631631,vowelstep5.wav,None,1000,17,1859643,310,229.285
J,2,1631631,silence.wav,None,1000,17,1861644,326,231.285
J,2,1631631,sinestep3.wav,None,1000,17,1863644,325,233.285
J,2,1631631,vowelstep5.wav,None,1000,17,1865644,334,235.285
J,2,1631631,vowelstep3.wav,None,1000,17,1867644,335,237.285
J,2,1631631,vowelstep5.wav,None,1000,17,1869643,336,239.285
J,2,1631631,vowelstep7.wav,None,1000,17,1871643,316,241.285
J,2,1631631,vowelstep1.wav,None,1000,17,1873643,315,243.285
J,2,1631631,sinestep7.wav,None,1000,17,1875643,276,245.285
J,2,1631631,sinestep7.wav,None,1000,17,1877643,335,247.285
J,2,1631631,silence.wav,None,1000,17,1879644,335,249.285
J,2,1631631,vowelstep1.wav,None,1000,17,1881644,335,251.285
J,2,1631631,vowelstep3_catch.wav,2,633,17,1883644,336,253.285
J,2,1631631,vowelstep1.wav,None,1000,17,1885644,702,255.285
J,2,1631631,vowelstep5_catch.wav,2,205,17,1887644,325,257.285
J,2,1631631,silence.wav,None,1000,17,1889644,1119,259.285
J,2,1631631,sinestep5.wav,None,1000,17,1891644,324,261.285
J,2,1631631,vowelstep1.wav,None,1000,17,1893644,335,263.285
J,2,1631631,sinestep5.wav,None,1000,17,1895643,336,265.285
J,2,1631631,vowelstep3.wav,None,1000,17,1897644,335,267.285
J,2,1631631,sinestep5.wav,None,1000,17,1899644,341,269.285
J,2,1631631,sinestep7.wav,None,1000,17,1901644,344,271.285
J,2,1631631,silence.wav,None,1000,17,1903644,344,273.285
J,2,1631631,vowelstep7_catch.wav,2,281,17,1905644,354,275.285
J,2,1631631,sinestep3.wav,None,1000,17,1907644,1053,277.285
J,2,1631631,vowelstep5.wav,None,1000,17,1909644,334,279.285
J,2,1631631,silence.wav,None,1000,17,1911644,334,281.285
J,2,1631631,silence.wav,None,1000,17,1913644,334,283.285
J,2,1631631,silence.wav,None,1000,17,1915645,324,285.285
J,2,1631631,vowelstep7.wav,None,1000,17,1917645,343,287.285
J,2,1631631,sinestep3.wav,None,1000,17,1919644,352,289.285
J,2,1631631,vowelstep5_catch.wav,2,157,17,1921644,323,291.285
J,2,1631631,silence.wav,None,1000,17,1923644,1175,293.285
J,2,1631631,sinestep7.wav,None,1000,17,1925644,333,295.285
J,2,1631631,vowelstep1.wav,None,1000,17,1927644,343,297.285
J,2,1631631,silence.wav,None,1000,17,1929644,343,299.285
J,2,1631631,sinestep1.wav,None,1000,17,1931645,321,301.285
J,2,1631631,sinestep5.wav,None,1000,17,1933645,342,303.285
J,2,1631631,vowelstep5.wav,None,1000,17,1935645,322,305.285
J,2,1631631,vowelstep3.wav,None,1000,17,1937645,329,307.285
J,2,1631631,sinestep7.wav,None,1000,17,1939645,331,309.285
J,2,1631631,vowelstep7.wav,None,1000,17,1941645,332,311.285
J,2,1631631,vowelstep3_catch.wav,2,146,17,1943644,342,313.285
J,2,1631631,vowelstep1_catch.wav,2,156,17,1945644,1194,315.285
J,2,1631631,sinestep3.wav,None,1000,17,1947644,1186,317.285
J,2,1631631,sinestep1.wav,None,1000,17,1949645,351,319.285
A,3,2006608,sinestep5_catch.wav,2,652,17,2006613,0,1.285
A,3,2006608,vowelstep1.wav,None,1000,17,2008612,701,3.285
A,3,2006608,vowelstep3.wav,None,1000,17,2010612,350,5.285
A,3,2006608,sinestep1.wav,None,1000,17,2012612,334,7.285
A,3,2006608,sinestep5_catch.wav,2,249,17,2014612,334,9.285
A,3,2006608,sinestep7.wav,None,1000,17,2016612,1081,11.285
A,3,2006608,sinestep3.wav,None,1000,17,2018612,344,13.285
A,3,2006608,silence.wav,None,1000,17,2020613,342,15.285
A,3,2006608,vowelstep7.wav,None,1000,17,2022613,342,17.285
A,3,2006608,sinestep7.wav,None,1000,17,2024613,323,19.285
A,3,2006608,vowelstep5_catch.wav,2,125,17,2026613,332,21.285
A,3,2006608,sinestep7.wav,None,1000,17,2028613,1206,23.285
A,3,2006608,sinestep3.wav,None,1000,17,2030613,333,25.285
A,3,2006608,silence.wav,None,1000,17,2032612,333,27.285
A,3,2006608,sinestep3.wav,None,1000,17,2034612,342,29.285
A,3,2006608,sinestep5_catch.wav,2,109,17,2036613,340,31.285
A,3,2006608,sinestep1.wav,None,1000,17,2038613,1241,33.285
A,3,2006608,sinestep1.wav,None,1000,17,2040613,331,35.285
A,3,2006608,sinestep5.wav,None,1000,17,2042613,331,37.285
A,3,2006608,vowelstep3.wav,None,1000,17,2044613,331,39.285
A,3,2006608,vowelstep5.wav,None,1000,17,2046613,341,41.285
A,3,2006608,vowelstep3.wav,None,1000,17,2048613,340,43.285
A,3,2006608,vowelstep1.wav,None,1000,17,2050613,341,45.285
A,3,2006608,vowelstep3.wav,None,1000,17,2052613,320,47.285
A,3,2006608,sinestep3.wav,None,1000,17,2054614,321,49.285
A,3,2006608,sinestep7.wav,None,1000,17,2056613,329,51.285
A,3,2006608,sinestep5.wav,None,1000,17,2058613,338,53.285
A,3,2006608,vowelstep7_catch.wav,2,127,17,2060613,339,55.285
A,3,2006608,silence.wav,None,1000,17,2062613,1211,57.285
A,3,2006608,vowelstep3.wav,None,1000,17,2064613,338,59.285
A,3,2006608,vowelstep1.wav,None,1000,17,2066613,349,61.285
A,3,2006608,silence.wav,None,1000,17,2068613,346,63.285
A,3,2006608,sinestep3.wav,None,1000,17,2070613,348,65.285
A,3,2006608,sinestep7.wav,None,1000,17,2072614,359,67.285
A,3,2006608,sinestep5.wav,None,1000,17,2074614,337,69.285
A,3,2006608,sinestep5.wav,None,1000,17,2076614,337,71.285
A,3,2006608,sinestep7.wav,None,1000,17,2078614,337,73.285
A,3,2006608,sinestep1.wav,None,1000,17,2080613,347,75.285
A,3,2006608,sinestep5.wav,None,1000,17,2082613,347,77.285
A,3,2006608,vowelstep1.wav,None,1000,17,2084613,346,79.285
A,3,2006608,sinestep1.wav,None,1000,17,2086613,357,81.285
A,3,2006608,vowelstep5.wav,None,1000,17,2088613,337,83.285
A,3,2006608,sinestep1.wav,None,1000,17,2090614,335,85.285
A,3,2006608,silence.wav,None,1000,17,2092614,335,87.285
A,3,2006608,vowelstep1.wav,None,1000,17,2094614,345,89.285
A,3,2006608,sinestep3.wav,None,1000,17,2096614,345,91.285
A,3,2006608,vowelstep5.wav,None,1000,17,2098614,345,93.285
A,3,2006608,vowelstep5.wav,None,1000,17,2100614,355,95.285
A,3,2006608,vowelstep5.wav,None,1000,17,2102614,335,97.285
A,3,2006608,vowelstep7.wav,None,1000,17,2104614,335,99.285
A,3,2006608,vowelstep3.wav,None,1000,17,2106614,335,101.285
A,3,2006608,sinestep1.wav,None,1000,17,2108614,334,103.285
A,3,2006608,sinestep1.wav,None,1000,17,2110614,343,105.285
A,3,2006608,vowelstep7.wav,None,1000,17,2112614,344,107.285
A,3,2006608,vowelstep1.wav,None,1000,17,2114614,344,109.285
A,3,2006608,vowelstep7.wav,None,1000,17,2116614,324,111.285
A,3,2006608,silence.wav,None,1000,17,2118614,333,113.285
A,3,2006608,sinestep1.wav,None,1000,17,2120614,334,115.285
A,3,2006608,vowelstep1.wav,None,1000,17,2122614,332,117.285
A,3,2006608,silence.wav,None,1000,17,2124615,344,119.285
A,3,2006608,vowelstep1.wav,None,1000,17,2126615,343,121.285
A,3,2006608,vowelstep3.wav,None,1000,17,2128615,299,123.285
A,3,2006608,vowelstep1.wav,None,1000,17,2130614,321,125.285
A,3,2006608,sinestep7.wav,None,1000,17,2132614,331,127.285
A,3,2006608,silence.wav,None,1000,17,2134614,332,129.285
A,3,2006608,vowelstep1.wav,None,1000,17,2136614,332,131.285
A,3,2006608,silence.wav,None,1000,17,2138614,342,133.285
A,3,2006608,sinestep7.wav,None,1000,17,2140614,342,135.285
A,3,2006608,vowelstep5.wav,None,1000,17,2142615,341,137.285
A,3,2006608,sinestep7.wav,None,1000,17,2144615,322,139.285
A,3,2006608,sinestep3.wav,None,1000,17,2146615,330,141.285
A,3,2006608,vowelstep5.wav,None,1000,17,2148615,330,143.285
A,3,2006608,silence.wav,None,1000,17,2150615,330,145.285
A,3,2006608,sinestep3.wav,None,1000,17,2152615,337,147.285
A,3,2006608,sinestep5.wav,None,1000,17,2154614,339,149.285
A,3,2006608,sinestep3.wav,None,1000,17,2156614,340,151.285
A,3,2006608,vowelstep3.wav,None,1000,17,2158614,312,153.285
A,3,2006608,sinestep3.wav,None,1000,17,2160615,328,155.285
A,3,2006608,vowelstep7_catch.wav,2,428,17,2162615,328,157.285
A,3,2006608,vowelstep7.wav,None,1000,17,2164615,896,159.285
A,3,2006608,vowelstep5.wav,None,1000,17,2166615,337,161.285
A,3,2006608,sinestep5.wav,None,1000,17,2168615,337,163.285
A,3,2006608,silence.wav,None,1000,17,2170615,336,165.285
A,3,2006608,sinestep5.wav,None,1000,17,2172615,346,167.285
A,3,2006608,vowelstep5_catch.wav,2,392,17,2174615,326,169.285
A,3,2006608,silence.wav,None,1000,17,2176616,929,171.285
A,3,2006608,sinestep7.wav,None,1000,17,2178615,326,173.285
A,3,2006608,sinestep5.wav,None,1000,17,2180615,335,175.285
A,3,2006608,sinestep7.wav,None,1000,17,2182615,333,177.285
A,3,2006608,vowelstep3.wav,None,1000,17,2184615,336,179.285
A,3,2006608,sinestep5.wav,None,1000,17,2186615,316,181.285
A,3,2006608,vowelstep1.wav,None,1000,17,2188615,324,183.285
A,3,2006608,vowelstep5.wav,None,1000,17,2190615,324,185.285
A,3,2006608,sinestep5.wav,None,1000,17,2192615,326,187.285
A,3,2006608,vowelstep1.wav,None,1000,17,2194616,335,189.285
A,3,2006608,silence.wav,None,1000,17,2196616,333,191.285
A,3,2006608,sinestep1.wav,None,1000,17,2198616,334,193.285
A,3,2006608,vowelstep5.wav,None,1000,17,2200616,334,195.285
A,3,2006608,sinestep3.wav,None,1000,17,2202615,324,197.285
A,3,2006608,silence.wav,None,1000,17,2204615,324,199.285
A,3,2006608,vowelstep3.wav,None,1000,17,2206615,324,201.285
A,3,2006608,vowelstep3_catch.wav,2,325,17,2208615,324,203.285
A,3,2006608,vowelstep5.wav,None,1000,17,2210615,1008,205.285
A,3,2006608,vowelstep1_catch.wav,2,377,17,2212616,334,207.285
A,3,2006608,silence.wav,None,1000,17,2214616,963,209.285
A,3,2006608,sinestep3.wav,None,1000,17,2216616,313,211.285
A,3,2006608,vowelstep5.wav,None,1000,17,2218616,323,213.285
A,3,2006608,silence.wav,None,1000,17,2220616,323,215.285
A,3,2006608,sinestep5.wav,None,1000,17,2222616,321,217.285
A,3,2006608,vowelstep7.wav,None,1000,17,2224616,333,219.285
A,3,2006608,silence.wav,None,1000,17,2226616,332,221.285
A,3,2006608,vowelstep3.wav,None,1000,17,2228615,342,223.285
A,3,2006608,sinestep7.wav,None,1000,17,2230616,309,225.285
A,3,2006608,silence.wav,None,1000,17,2232616,322,227.285
A,3,2006608,vowelstep3.wav,None,1000,17,2234616,322,229.285
A,3,2006608,vowelstep5.wav,None,1000,17,2236616,331,231.285
A,3,2006608,vowelstep7.wav,None,1000,17,2238616,329,233.285
A,3,2006608,vowelstep3.wav,None,1000,17,2240616,332,235.285
A,3,2006608,vowelstep5.wav,None,1000,17,2242616,340,237.285
A,3,2006608,sinestep1_catch.wav,2,393,17,2244616,342,239.285
A,3,2006608,sinestep3.wav,None,1000,17,2246617,926,241.285
A,3,2006608,sinestep1.wav,None,1000,17,2248617,320,243.285
A,3,2006608,sinestep3_catch.wav,2,354,17,2250617,320,245.285
A,3,2006608,sinestep7.wav,None,1000,17,2252616,973,247.285
A,3,2006608,vowelstep1.wav,None,1000,17,2254616,330,249.285
A,3,2006608,sinestep3.wav,None,1000,17,2256616,340,251.285
A,3,2006608,vowelstep7.wav,None,1000,17,2258616,339,253.285
A,3,2006608,silence.wav,None,1000,17,2260616,321,255.285
A,3,2006608,sinestep1.wav,None,1000,17,2262616,321,257.285
A,3,2006608,silence.wav,None,1000,17,2264617,320,259.285
A,3,2006608,vowelstep5.wav,None,1000,17,2266617,329,261.285
A,3,2006608,sinestep5_catch.wav,None,1000,17,2268617,313,263.285
A,3,2006608,vowelstep7.wav,None,1000,17,2270617,328,265.285
A,3,2006608,sinestep3.wav,None,1000,17,2272617,313,267.285
A,3,2006608,vowelstep1.wav,None,1000,17,2274617,319,269.285
A,3,2006608,vowelstep3.wav,None,1000,17,2276616,319,271.285
A,3,2006608,sinestep7_catch.wav,2,440,17,2278616,319,273.285
A,3,2006608,silence.wav,None,1000,17,2280616,885,275.285
A,3,2006608,vowelstep7.wav,None,1000,17,2282617,329,277.285
A,3,2006608,sinestep7.wav,None,1000,17,2284617,328,279.285
A,3,2006608,sinestep1.wav,None,1000,17,2286617,305,281.285
A,3,2006608,vowelstep7.wav,None,1000,17,2288617,317,283.285
A,3,2006608,sinestep5.wav,None,1000,17,2290617,317,285.285
A,3,2006608,sinestep5.wav,None,1000,17,2292617,317,287.285
A,3,2006608,sinestep7_catch.wav,2,237,17,2294617,328,289.285
A,3,2006608,sinestep5.wav,None,1000,17,2296617,1090,291.285
A,3,2006608,silence.wav,None,1000,17,2298618,328,293.285
A,3,2006608,vowelstep3.wav,None,1000,17,2300617,337,295.285
A,3,2006608,silence.wav,None,1000,17,2302617,337,297.285
A,3,2006608,vowelstep1.wav,None,1000,17,2304617,336,299.285
A,3,2006608,sinestep1.wav,None,1000,17,2306617,347,301.285
A,3,2006608,sinestep7.wav,None,1000,17,2308617,327,303.285
A,3,2006608,vowelstep7.wav,None,1000,17,2310617,326,305.285
A,3,2006608,sinestep1_catch.wav,None,1000,17,2312617,327,307.285
A,3,2006608,silence.wav,None,1000,17,2314617,336,309.285
A,3,2006608,silence.wav,None,1000,17,2316618,335,311.285
A,3,2006608,vowelstep7.wav,None,1000,17,2318618,317,313.285
A,3,2006608,sinestep1.wav,None,1000,17,2320618,346,315.285
A,3,2006608,vowelstep7.wav,None,1000,17,2322618,313,317.285
A,3,2006608,vowelstep7.wav,None,1000,17,2324617,325,319.285
G,4,2384704,vowelstep3.wav,None,1000,17,2384718,0,1.285
G,4,2384704,vowelstep3.wav,None,1000,17,2386719,333,3.285
G,4,2384704,vowelstep7.wav,None,1000,17,2388719,307,5.285
G,4,2384704,vowelstep3.wav,None,1000,17,2390719,318,7.285
G,4,2384704,sinestep5.wav,None,1000,17,2392719,318,9.285
G,4,2384704,sinestep1_catch.wav,2,234,17,2394719,318,11.285
G,4,2384704,silence.wav,None,1000,17,2396719,1093,13.285
G,4,2384704,silence.wav,None,1000,17,2398718,327,15.285
G,4,2384704,vowelstep7.wav,None,1000,17,2400718,326,17.285
G,4,2384704,vowelstep1.wav,None,1000,17,2402718,308,19.285
G,4,2384704,silence.wav,None,1000,17,2404719,317,21.285
G,4,2384704,sinestep1.wav,None,1000,17,2406719,316,23.285
G,4,2384704,vowelstep7.wav,None,1000,17,2408719,318,25.285
G,4,2384704,sinestep5.wav,None,1000,17,2410719,317,27.285
G,4,2384704,sinestep5.wav,None,1000,17,2412719,178,29.285
G,4,2384704,sinestep3.wav,None,1000,17,2414719,323,31.285
G,4,2384704,vowelstep3.wav,None,1000,17,2416719,306,33.285
G,4,2384704,silence.wav,None,1000,17,2418719,316,35.285
G,4,2384704,vowelstep1.wav,None,1000,17,2420719,314,37.285
G,4,2384704,sinestep7.wav,None,1000,17,2422719,316,39.285
G,4,2384704,vowelstep5.wav,None,1000,17,2424719,324,41.285
G,4,2384704,vowelstep3.wav,None,1000,17,2426719,324,43.285
G,4,2384704,sinestep1.wav,None,1000,17,2428719,325,45.285
G,4,2384704,sinestep7.wav,None,1000,17,2430719,305,47.285
G,4,2384704,sinestep1.wav,None,1000,17,2432719,314,49.285
G,4,2384704,sinestep5.wav,None,1000,17,2434719,316,51.285
G,4,2384704,vowelstep1.wav,None,1000,17,2436719,315,53.285
G,4,2384704,silence.wav,None,1000,17,2438720,314,55.285
G,4,2384704,sinestep5.wav,None,1000,17,2440720,325,57.285
G,4,2384704,vowelstep1.wav,None,1000,17,2442720,324,59.285
G,4,2384704,vowelstep3.wav,None,1000,17,2444720,334,61.285
G,4,2384704,sinestep3.wav,None,1000,17,2446719,335,63.285
G,4,2384704,sinestep1.wav,None,1000,17,2448719,312,65.285
G,4,2384704,vowelstep5.wav,None,1000,17,2450719,314,67.285
G,4,2384704,vowelstep3.wav,None,1000,17,2452719,324,69.285
G,4,2384704,vowelstep5.wav,None,1000,17,2454719,324,71.285
G,4,2384704,vowelstep7.wav,None,1000,17,2456720,324,73.285
G,4,2384704,vowelstep5.wav,None,1000,17,2458720,333,75.285
G,4,2384704,vowelstep5.wav,None,1000,17,2460720,303,77.285
G,4,2384704,sinestep3.wav,None,1000,17,2462720,313,79.285
G,4,2384704,sinestep3_catch.wav,2,84,17,2464720,313,81.285
G,4,2384704,sinestep5_catch.wav,2,116,17,2466720,1225,83.285
G,4,2384704,sinestep7.wav,None,1000,17,2468720,1206,85.285
G,4,2384704,sinestep7_catch.wav,2,34,17,2470719,322,87.285
G,4,2384704,sinestep7.wav,None,1000,17,2472719,1287,89.285
G,4,2384704,vowelstep1.wav,None,1000,17,2474720,333,91.285
G,4,2384704,vowelstep7.wav,None,1000,17,2476720,312,93.285
G,4,2384704,vowelstep3.wav,None,1000,17,2478720,311,95.285
G,4,2384704,sinestep3.wav,None,1000,17,2480720,321,97.285
G,4,2384704,sinestep1.wav,None,1000,17,2482720,322,99.285
G,4,2384704,sinestep1.wav,None,1000,17,2484720,322,101.285
G,4,2384704,sinestep5.wav,None,1000,17,2486720,332,103.285
G,4,2384704,vowelstep7.wav,None,1000,17,2488720,300,105.285
G,4,2384704,silence.wav,None,1000,17,2490720,311,107.285
G,4,2384704,sinestep3.wav,None,1000,17,2492721,307,109.285
G,4,2384704,vowelstep1.wav,None,1000,17,2494721,320,111.285
G,4,2384704,sinestep3.wav,None,1000,17,2496720,319,113.285
G,4,2384704,sinestep3.wav,None,1000,17,2498720,320,115.285
G,4,2384704,sinestep7.wav,None,1000,17,2500720,319,117.285
G,4,2384704,silence.wav,None,1000,17,2502720,330,119.285
G,4,2384704,vowelstep5.wav,None,1000,17,2504720,310,121.285
G,4,2384704,sinestep1_catch.wav,None,1000,17,2506720,310,123.285
G,4,2384704,silence.wav,None,1000,17,2508721,310,125.285
G,4,2384704,sinestep5.wav,None,1000,17,2510721,319,127.285
G,4,2384704,sinestep7.wav,None,1000,17,2512721,319,129.285
G,4,2384704,sinestep3.wav,None,1000,17,2514721,319,131.285
G,4,2384704,sinestep3.wav,None,1000,17,2516721,329,133.285
G,4,2384704,vowelstep5.wav,None,1000,17,2518721,309,135.285
G,4,2384704,sinestep3.wav,None,1000,17,2520720,309,137.285
G,4,2384704,sinestep3_catch.wav,2,381,17,2522720,309,139.285
G,4,2384704,vowelstep1.wav,None,1000,17,2524720,934,141.285
G,4,2384704,vowelstep1.wav,None,1000,17,2526721,318,143.285
G,4,2384704,sinestep5.wav,None,1000,17,2528721,318,145.285
G,4,2384704,silence.wav,None,1000,17,2530721,298,147.285
G,4,2384704,sinestep3.wav,None,1000,17,2532721,306,149.285
G,4,2384704,silence.wav,None,1000,17,2534721,308,151.285
G,4,2384704,vowelstep3.wav,None,1000,17,2536721,308,153.285
G,4,2384704,sinestep5.wav,None,1000,17,2538721,318,155.285
G,4,2384704,vowelstep7.wav,None,1000,17,2540721,319,157.285
G,4,2384704,silence.wav,None,1000,17,2542721,317,159.285
G,4,2384704,sinestep5_catch.wav,2,184,17,2544721,318,161.285
G,4,2384704,vowelstep5.wav,None,1000,17,2546721,1142,163.285
G,4,2384704,silence.wav,None,1000,17,2548721,302,165.285
G,4,2384704,vowelstep7.wav,None,1000,17,2550721,307,167.285
G,4,2384704,vowelstep1.wav,None,1000,17,2552721,307,169.285
G,4,2384704,vowelstep1.wav,None,1000,17,2554721,317,171.285
G,4,2384704,vowelstep1.wav,None,1000,17,2556721,317,173.285
G,4,2384704,sinestep5.wav,None,1000,17,2558721,324,175.285
G,4,2384704,vowelstep3.wav,None,1000,17,2560721,326,177.285
G,4,2384704,sinestep1.wav,None,1000,17,2562722,325,179.285
G,4,2384704,vowelstep1.wav,None,1000,17,2564722,325,181.285
G,4,2384704,sinestep1.wav,None,1000,17,2566722,316,183.285
G,4,2384704,sinestep7.wav,None,1000,17,2568721,317,185.285
G,4,2384704,sinestep7.wav,None,1000,17,2570721,316,187.285
G,4,2384704,sinestep3.wav,None,1000,17,2572721,312,189.285
G,4,2384704,sinestep5.wav,None,1000,17,2574721,322,191.285
G,4,2384704,silence.wav,None,1000,17,2576721,325,193.285
G,4,2384704,sinestep7_catch.wav,2,196,17,2578722,334,195.285
G,4,2384704,vowelstep7_catch.wav,2,375,17,2580722,1116,197.285
G,4,2384704,sinestep7.wav,None,1000,17,2582722,937,199.285
G,4,2384704,silence.wav,None,1000,17,2584722,313,201.285
G,4,2384704,sinestep7.wav,None,1000,17,2586722,324,203.285
G,4,2384704,sinestep3.wav,None,1000,17,2588722,324,205.285
G,4,2384704,vowelstep7.wav,None,1000,17,2590722,324,207.285
G,4,2384704,sinestep1.wav,None,1000,17,2592721,325,209.285
G,4,2384704,silence.wav,None,1000,17,2594721,314,211.285
G,4,2384704,silence.wav,None,1000,17,2596722,315,213.285
G,4,2384704,vowelstep7.wav,None,1000,17,2598722,314,215.285
G,4,2384704,vowelstep5.wav,None,1000,17,2600722,313,217.285
G,4,2384704,sinestep7.wav,None,1000,17,2602722,324,219.285
G,4,2384704,vowelstep5.wav,None,1000,17,2604722,323,221.285
G,4,2384704,vowelstep5_catch.wav,None,1000,17,2606722,323,223.285
G,4,2384704,vowelstep7.wav,None,1000,17,2608722,333,225.285
G,4,2384704,silence.wav,None,1000,17,2610722,313,227.285
G,4,2384704,silence.wav,None,1000,17,2612722,314,229.285
G,4,2384704,sinestep1.wav,None,1000,17,2614723,315,231.285
G,4,2384704,silence.wav,None,1000,17,2616722,321,233.285
G,4,2384704,vowelstep7.wav,None,1000,17,2618722,321,235.285
G,4,2384704,vowelstep5.wav,None,1000,17,2620722,332,237.285
G,4,2384704,vowelstep3.wav,None,1000,17,2622722,302,239.285
G,4,2384704,vowelstep3_catch.wav,None,1000,17,2624722,310,241.285
G,4,2384704,sinestep1.wav,None,1000,17,2626722,312,243.285
G,4,2384704,silence.wav,None,1000,17,2628722,313,245.285
G,4,2384704,sinestep7.wav,None,1000,17,2630722,322,247.285
G,4,2384704,sinestep1.wav,None,1000,17,2632723,322,249.285
G,4,2384704,sinestep3.wav,None,1000,17,2634723,322,251.285
G,4,2384704,vowelstep3.wav,None,1000,17,2636723,331,253.285
G,4,2384704,vowelstep1_catch.wav,2,179,17,2638723,312,255.285
G,4,2384704,sinestep7.wav,None,1000,17,2640723,1132,257.285
G,4,2384704,silence.wav,None,1000,17,2642722,311,259.285
G,4,2384704,sinestep5.wav,None,1000,17,2644722,321,261.285
G,4,2384704,sinestep5.wav,None,1000,17,2646722,321,263.285
G,4,2384704,vowelstep5.wav,None,1000,17,2648723,321,265.285
G,4,2384704,sinestep5.wav,None,1000,17,2650706,301,267.285
G,4,2384704,sinestep7.wav,None,1000,17,2652723,330,269.285
G,4,2384704,silence.wav,None,1000,17,2654723,311,271.285
G,4,2384704,vowelstep7_catch.wav,None,1000,17,2656723,320,273.285
G,4,2384704,vowelstep5.wav,None,1000,17,2658723,320,275.285
G,4,2384704,silence.wav,None,1000,17,2660723,320,277.285
G,4,2384704,sinestep3.wav,None,1000,17,2662723,320,279.285
G,4,2384704,vowelstep5.wav,None,1000,17,2664723,330,281.285
G,4,2384704,silence.wav,None,1000,17,2666707,310,283.285
G,4,2384704,vowelstep1.wav,None,1000,17,2668707,329,285.285
G,4,2384704,sinestep1.wav,None,1000,17,2670723,340,287.285
G,4,2384704,vowelstep3.wav,None,1000,17,2672723,289,289.285
G,4,2384704,vowelstep7.wav,None,1000,17,2674723,318,291.285
G,4,2384704,vowelstep7.wav,None,1000,17,2676723,319,293.285
G,4,2384704,sinestep1.wav,None,1000,17,2678723,326,295.285
G,4,2384704,vowelstep5.wav,None,1000,17,2680723,328,297.285
G,4,2384704,silence.wav,None,1000,17,2682723,310,299.285
G,4,2384704,sinestep1.wav,None,1000,17,2684707,309,301.285
G,4,2384704,vowelstep7.wav,None,1000,17,2686707,338,303.285
G,4,2384704,vowelstep5_catch.wav,2,207,17,2688724,338,305.285
G,4,2384704,vowelstep3.wav,None,1000,17,2690723,1112,307.285
G,4,2384704,vowelstep3_catch.wav,2,251,17,2692723,298,309.285
G,4,2384704,sinestep7.wav,None,1000,17,2694723,1044,311.285
G,4,2384704,sinestep5.wav,None,1000,17,2696723,304,313.285
G,4,2384704,vowelstep1.wav,None,1000,17,2698706,308,315.285
G,4,2384704,vowelstep3.wav,None,1000,17,2700724,338,317.285
G,4,2384704,vowelstep1.wav,None,1000,17,2702707,317,319.285
C,5,2761649,sinestep1.wav,None,1000,17,2761658,0,1.285
C,5,2761649,vowelstep1.wav,None,1000,17,2763658,341,3.285
C,5,2761649,sinestep1.wav,None,1000,17,2765658,309,5.285
C,5,2761649,sinestep1.wav,None,1000,17,2767658,319,7.285
C,5,2761649,vowelstep1.wav,None,1000,17,2769658,319,9.285
C,5,2761649,sinestep1.wav,None,1000,17,2771658,330,11.285
C,5,2761649,sinestep7.wav,None,1000,17,2773658,328,13.285
C,5,2761649,vowelstep7.wav,None,1000,17,2775658,327,15.285
C,5,2761649,vowelstep3.wav,None,1000,17,2777658,327,17.285
C,5,2761649,vowelstep5.wav,None,1000,17,2779658,309,19.285
C,5,2761649,silence.wav,None,1000,17,2781658,318,21.285
C,5,2761649,sinestep3.wav,None,1000,17,2783658,318,23.285
C,5,2761649,vowelstep5.wav,None,1000,17,2785658,329,25.285
C,5,2761649,sinestep1.wav,None,1000,17,2787658,328,27.285
C,5,2761649,vowelstep1.wav,None,1000,17,2789659,328,29.285
C,5,2761649,vowelstep7.wav,None,1000,17,2791659,325,31.285
C,5,2761649,vowelstep3.wav,None,1000,17,2793659,335,33.285
C,5,2761649,sinestep1.wav,None,1000,17,2795658,316,35.285
C,5,2761649,sinestep5.wav,None,1000,17,2797658,316,37.285
C,5,2761649,silence.wav,None,1000,17,2799658,313,39.285
C,5,2761649,vowelstep7.wav,None,1000,17,2801658,306,41.285
C,5,2761649,vowelstep5.wav,None,1000,17,2803658,327,43.285
C,5,2761649,sinestep5.wav,None,1000,17,2805659,327,45.285
C,5,2761649,silence.wav,None,1000,17,2807659,306,47.285
C,5,2761649,sinestep5.wav,None,1000,17,2809659,315,49.285
C,5,2761649,sinestep1.wav,None,1000,17,2811659,315,51.285
C,5,2761649,silence.wav,None,1000,17,2813659,316,53.285
C,5,2761649,vowelstep1.wav,None,1000,17,2815659,326,55.285
C,5,2761649,vowelstep1.wav,None,1000,17,2817659,325,57.285
C,5,2761649,sinestep1.wav,None,1000,17,2819658,326,59.285
C,5,2761649,silence.wav,None,1000,17,2821658,325,61.285
C,5,2761649,vowelstep5.wav,None,1000,17,2823659,315,63.285
C,5,2761649,vowelstep3.wav,None,1000,17,2825659,315,65.285
C,5,2761649,vowelstep3.wav,None,1000,17,2827659,315,67.285
C,5,2761649,vowelstep7.wav,None,1000,17,2829659,324,69.285
C,5,2761649,silence.wav,None,1000,17,2831659,325,71.285
C,5,2761649,vowelstep3.wav,None,1000,17,2833659,325,73.285
C,5,2761649,silence.wav,None,1000,17,2835659,335,75.285
C,5,2761649,sinestep5.wav,None,1000,17,2837659,315,77.285
C,5,2761649,vowelstep7.wav,None,1000,17,2839659,315,79.285
C,5,2761649,vowelstep1_catch.wav,2,187,17,2841660,312,81.285
C,5,2761649,vowelstep3.wav,None,1000,17,2843660,1136,83.285
C,5,2761649,sinestep7.wav,None,1000,17,2845659,322,85.285
C,5,2761649,vowelstep3.wav,None,1000,17,2847659,323,87.285
C,5,2761649,sinestep1.wav,None,1000,17,2849659,333,89.285
C,5,2761649,sinestep7.wav,None,1000,17,2851659,314,91.285
C,5,2761649,sinestep7.wav,None,1000,17,2853659,314,93.285
C,5,2761649,sinestep3.wav,None,1000,17,2855659,314,95.285
C,5,2761649,vowelstep3_catch.wav,2,242,17,2857659,324,97.285
C,5,2761649,sinestep5.wav,None,1000,17,2859660,1080,99.285
C,5,2761649,sinestep5.wav,None,1000,17,2861660,323,101.285
C,5,2761649,vowelstep3.wav,None,1000,17,2863660,323,103.285
C,5,2761649,vowelstep5.wav,None,1000,17,2865660,333,105.285
C,5,2761649,sinestep1.wav,None,1000,17,2867660,313,107.285
C,5,2761649,sinestep3.wav,None,1000,17,2869659,312,109.285
C,5,2761649,vowelstep5.wav,None,1000,17,2871659,313,111.285
C,5,2761649,vowelstep7.wav,None,1000,17,2873659,323,113.285
C,5,2761649,vowelstep1.wav,None,1000,17,2875660,323,115.285
C,5,2761649,sinestep7.wav,None,1000,17,2877660,328,117.285
C,5,2761649,sinestep3.wav,None,1000,17,2879660,332,119.285
C,5,2761649,vowelstep1.wav,None,1000,17,2881660,333,121.285
C,5,2761649,vowelstep1.wav,None,1000,17,2883660,334,123.285
C,5,2761649,sinestep3.wav,None,1000,17,2885660,309,125.285
C,5,2761649,silence.wav,None,1000,17,2887660,323,127.285
C,5,2761649,silence.wav,None,1000,17,2889660,323,129.285
C,5,2761649,vowelstep5_catch.wav,2,460,17,2891660,325,131.285
C,5,2761649,vowelstep5.wav,None,1000,17,2893660,866,133.285
C,5,2761649,silence.wav,None,1000,17,2895660,332,135.285
C,5,2761649,sinestep1.wav,None,1000,17,2897660,346,137.285
C,5,2761649,vowelstep7.wav,None,1000,17,2899660,314,139.285
C,5,2761649,sinestep7.wav,None,1000,17,2901660,326,141.285
C,5,2761649,silence.wav,None,1000,17,2903660,328,143.285
C,5,2761649,silence.wav,None,1000,17,2905660,326,145.285
C,5,2761649,sinestep7.wav,None,1000,17,2907660,337,147.285
C,5,2761649,vowelstep1.wav,None,1000,17,2909660,333,149.285
C,5,2761649,vowelstep5.wav,None,1000,17,2911661,333,151.285
C,5,2761649,vowelstep5.wav,None,1000,17,2913661,340,153.285
C,5,2761649,vowelstep7.wav,None,1000,17,2915661,325,155.285
C,5,2761649,sinestep7.wav,None,1000,17,2917660,325,157.285
C,5,2761649,vowelstep1.wav,None,1000,17,2919660,326,159.285
C,5,2761649,vowelstep3.wav,None,1000,17,2921660,334,161.285
C,5,2761649,sinestep5.wav,None,1000,17,2923660,335,163.285
C,5,2761649,sinestep7.wav,None,1000,17,2925660,335,165.285
C,5,2761649,sinestep1.wav,None,1000,17,2927660,332,167.285
C,5,2761649,sinestep7.wav,None,1000,17,2929661,325,169.285
C,5,2761649,sinestep3.wav,None,1000,17,2931661,323,171.285
C,5,2761649,silence.wav,None,1000,17,2933661,329,173.285
C,5,2761649,vowelstep7.wav,None,1000,17,2935661,334,175.285
C,5,2761649,sinestep7.wav,None,1000,17,2937661,338,177.285
C,5,2761649,sinestep5.wav,None,1000,17,2939661,337,179.285
C,5,2761649,vowelstep7.wav,None,1000,17,2941661,345,181.285
C,5,2761649,vowelstep5.wav,None,1000,17,2943660,325,183.285
C,5,2761649,vowelstep3.wav,None,1000,17,2945661,326,185.285
C,5,2761649,vowelstep7_catch.wav,2,322,17,2947661,327,187.285
C,5,2761649,vowelstep3.wav,None,1000,17,2949661,1010,189.285
C,5,2761649,vowelstep5.wav,None,1000,17,2951661,337,191.285
C,5,2761649,vowelstep7.wav,None,1000,17,2953661,336,193.285
C,5,2761649,vowelstep7_catch.wav,2,374,17,2955661,337,195.285
C,5,2761649,vowelstep5_catch.wav,2,156,17,2957661,948,197.285
C,5,2761649,sinestep5.wav,None,1000,17,2959661,1171,199.285
C,5,2761649,sinestep3.wav,None,1000,17,2961661,324,201.285
C,5,2761649,vowelstep3_catch.wav,2,172,17,2963662,339,203.285
C,5,2761649,vowelstep1_catch.wav,2,217,17,2965662,1158,205.285
C,5,2761649,vowelstep5.wav,None,1000,17,2967661,1117,207.285
C,5,2761649,vowelstep1.wav,None,1000,17,2969661,333,209.285
C,5,2761649,sinestep1_catch.wav,2,771,17,2971661,314,211.285
C,5,2761649,sinestep3_catch.wav,2,151,17,2973661,549,213.285
C,5,2761649,sinestep1.wav,None,1000,17,2975661,1171,215.285
C,5,2761649,vowelstep3.wav,None,1000,17,2977661,334,217.285
C,5,2761649,sinestep3.wav,None,1000,17,2979661,331,219.285
C,5,2761649,vowelstep5.wav,None,1000,17,2981662,333,221.285
C,5,2761649,sinestep7.wav,None,1000,17,2983662,329,223.285
C,5,2761649,sinestep1.wav,None,1000,17,2985662,324,225.285
C,5,2761649,sinestep5_catch.wav,2,114,17,2987662,325,227.285
C,5,2761649,vowelstep7.wav,None,1000,17,2989662,1207,229.285
C,5,2761649,vowelstep3.wav,None,1000,17,2991661,326,231.285
C,5,2761649,silence.wav,None,1000,17,2993661,305,233.285
C,5,2761649,vowelstep1.wav,None,1000,17,2995661,336,235.285
C,5,2761649,sinestep5.wav,None,1000,17,2997661,335,237.285
C,5,2761649,sinestep1.wav,None,1000,17,2999662,314,239.285
C,5,2761649,vowelstep7.wav,None,1000,17,3001662,324,241.285
C,5,2761649,sinestep3.wav,None,1000,17,3003662,324,243.285
C,5,2761649,sinestep3.wav,None,1000,17,3005662,323,245.285
C,5,2761649,sinestep5.wav,None,1000,17,3007662,334,247.285
C,5,2761649,vowelstep3.wav,None,1000,17,3009662,334,249.285
C,5,2761649,sinestep3.wav,None,1000,17,3011662,331,251.285
C,5,2761649,silence.wav,None,1000,17,3013662,314,253.285
C,5,2761649,sinestep3.wav,None,1000,17,3015662,324,255.285
C,5,2761649,vowelstep1.wav,None,1000,17,3017662,324,257.285
C,5,2761649,silence.wav,None,1000,17,3019662,323,259.285
C,5,2761649,vowelstep1.wav,None,1000,17,3021662,331,261.285
C,5,2761649,silence.wav,None,1000,17,3023662,332,263.285
C,5,2761649,sinestep7.wav,None,1000,17,3025662,334,265.285
C,5,2761649,sinestep3.wav,None,1000,17,3027662,309,267.285
C,5,2761649,vowelstep1.wav,None,1000,17,3029662,322,269.285
C,5,2761649,sinestep7.wav,None,1000,17,3031662,323,271.285
C,5,2761649,sinestep7_catch.wav,2,215,17,3033663,322,273.285
C,5,2761649,vowelstep5.wav,None,1000,17,3035663,1116,275.285
C,5,2761649,silence.wav,None,1000,17,3037663,330,277.285
C,5,2761649,silence.wav,None,1000,17,3039662,330,279.285
C,5,2761649,sinestep3.wav,None,1000,17,3041662,335,281.285
C,5,2761649,vowelstep7.wav,None,1000,17,3043662,318,283.285
C,5,2761649,sinestep5.wav,None,1000,17,3045662,322,285.285
C,5,2761649,sinestep5.wav,None,1000,17,3047662,321,287.285
C,5,2761649,vowelstep3.wav,None,1000,17,3049662,333,289.285
C,5,2761649,sinestep3.wav,None,1000,17,3051663,331,291.285
C,5,2761649,silence.wav,None,1000,17,3053663,328,293.285
C,5,2761649,silence.wav,None,1000,17,3055663,341,295.285
C,5,2761649,vowelstep7.wav,None,1000,17,3057663,317,297.285
C,5,2761649,silence.wav,None,1000,17,3059663,322,299.285
C,5,2761649,vowelstep5.wav,None,1000,17,3061663,321,301.285
C,5,2761649,sinestep5.wav,None,1000,17,3063662,321,303.285
C,5,2761649,silence.wav,None,1000,17,3065662,331,305.285
C,5,2761649,silence.wav,None,1000,17,3067662,332,307.285
C,5,2761649,silence.wav,None,1000,17,3069663,337,309.285
C,5,2761649,sinestep7_catch.wav,2,235,17,3071663,320,311.285
C,5,2761649,sinestep7.wav,None,1000,17,3073663,1084,313.285
C,5,2761649,sinestep5_catch.wav,2,130,17,3075663,318,315.285
C,5,2761649,sinestep5.wav,None,1000,17,3077663,1199,317.285
C,5,2761649,sinestep3_catch.wav,2,63,17,3079663,330,319.285
B,6,3136620,vowelstep5.wav,None,1000,17,3136630,0,1.285
B,6,3136620,silence.wav,None,1000,17,3138631,326,3.285
B,6,3136620,sinestep7.wav,None,1000,17,3140631,326,5.285
B,6,3136620,vowelstep1_catch.wav,2,249,17,3142631,326,7.285
B,6,3136620,vowelstep7.wav,None,1000,17,3144631,1076,9.285
B,6,3136620,vowelstep3.wav,None,1000,17,3146631,336,11.285
B,6,3136620,vowelstep7.wav,None,1000,17,3148631,335,13.285
B,6,3136620,vowelstep5.wav,None,1000,17,3150631,347,15.285
B,6,3136620,vowelstep7.wav,None,1000,17,3152630,316,17.285
B,6,3136620,vowelstep3.wav,None,1000,17,3154630,328,19.285
B,6,3136620,silence.wav,None,1000,17,3156631,324,21.285
B,6,3136620,silence.wav,None,1000,17,3158631,335,23.285
B,6,3136620,sinestep5.wav,None,1000,17,3160631,331,25.285
B,6,3136620,sinestep1.wav,None,1000,17,3162631,338,27.285
B,6,3136620,vowelstep7.wav,None,1000,17,3164631,336,29.285
B,6,3136620,sinestep5.wav,None,1000,17,3166631,347,31.285
B,6,3136620,vowelstep1.wav,None,1000,17,3168631,328,33.285
B,6,3136620,vowelstep7.wav,None,1000,17,3170631,321,35.285
B,6,3136620,vowelstep3.wav,None,1000,17,3172631,317,37.285
B,6,3136620,sinestep5.wav,None,1000,17,3174632,327,39.285
B,6,3136620,vowelstep1.wav,None,1000,17,3176631,59,41.285
B,6,3136620,sinestep3.wav,None,1000,17,3178631,331,43.285
B,6,3136620,vowelstep5.wav,None,1000,17,3180631,344,45.285
B,6,3136620,vowelstep7.wav,None,1000,17,3182631,322,47.285
B,6,3136620,vowelstep3.wav,None,1000,17,3184631,323,49.285
B,6,3136620,sinestep7.wav,None,1000,17,3186631,323,51.285
B,6,3136620,sinestep3.wav,None,1000,17,3188631,332,53.285
B,6,3136620,sinestep1.wav,None,1000,17,3190632,328,55.285
B,6,3136620,sinestep1.wav,None,1000,17,3192632,332,57.285
B,6,3136620,sinestep5.wav,None,1000,17,3194632,308,59.285
B,6,3136620,vowelstep5.wav,None,1000,17,3196632,322,61.285
B,6,3136620,vowelstep3_catch.wav,2,223,17,3198632,320,63.285
B,6,3136620,vowelstep7.wav,None,1000,17,3200632,1095,65.285
B,6,3136620,sinestep1.wav,None,1000,17,3202631,331,67.285
B,6,3136620,vowelstep5.wav,None,1000,17,3204631,327,69.285
B,6,3136620,vowelstep5_catch.wav,2,223,17,3206631,331,71.285
B,6,3136620,vowelstep7.wav,None,1000,17,3208632,1088,73.285
B,6,3136620,sinestep3.wav,None,1000,17,3210632,318,75.285
B,6,3136620,vowelstep7_catch.wav,2,252,17,3212632,321,77.285
B,6,3136620,sinestep5.wav,None,1000,17,3214632,1068,79.285
B,6,3136620,vowelstep5.wav,None,1000,17,3216632,322,81.285
B,6,3136620,silence.wav,None,1000,17,3218632,331,83.285
B,6,3136620,silence.wav,None,1000,17,3220632,328,85.285
B,6,3136620,vowelstep3.wav,None,1000,17,3222632,312,87.285
B,6,3136620,silence.wav,None,1000,17,3224632,317,89.285
B,6,3136620,sinestep1.wav,None,1000,17,3226632,323,91.285
B,6,3136620,sinestep1.wav,None,1000,17,3228632,313,93.285
B,6,3136620,sinestep5.wav,None,1000,17,3230632,326,95.285
B,6,3136620,vowelstep7.wav,None,1000,17,3232632,326,97.285
B,6,3136620,sinestep5.wav,None,1000,17,3234632,327,99.285
B,6,3136620,sinestep5.wav,None,1000,17,3236632,328,101.285
B,6,3136620,silence.wav,None,1000,17,3238632,313,103.285
B,6,3136620,vowelstep1.wav,None,1000,17,3240632,317,105.285
B,6,3136620,silence.wav,None,1000,17,3242632,314,107.285
B,6,3136620,sinestep1.wav,None,1000,17,3244633,317,109.285
B,6,3136620,vowelstep7.wav,None,1000,17,3246633,322,111.285
B,6,3136620,silence.wav,None,1000,17,3248633,324,113.285
B,6,3136620,sinestep1.wav,None,1000,17,3250632,337,115.285
B,6,3136620,vowelstep3.wav,None,1000,17,3252632,334,117.285
B,6,3136620,vowelstep5.wav,None,1000,17,3254632,318,119.285
B,6,3136620,silence.wav,None,1000,17,3256632,314,121.285
B,6,3136620,sinestep3.wav,None,1000,17,3258632,317,123.285
B,6,3136620,sinestep5.wav,None,1000,17,3260633,325,125.285
B,6,3136620,silence.wav,None,1000,17,3262633,326,127.285
B,6,3136620,vowelstep5.wav,None,1000,17,3264633,335,129.285
B,6,3136620,sinestep3.wav,None,1000,17,3266633,283,131.285
B,6,3136620,sinestep5.wav,None,1000,17,3268633,317,133.285
B,6,3136620,sinestep5.wav,None,1000,17,3270633,311,135.285
B,6,3136620,sinestep7.wav,None,1000,17,3272633,316,137.285
B,6,3136620,sinestep7.wav,None,1000,17,3274633,323,139.285
B,6,3136620,vowelstep5.wav,None,1000,17,3276632,328,141.285
B,6,3136620,sinestep1.wav,None,1000,17,3278633,329,143.285
B,6,3136620,vowelstep7.wav,None,1000,17,3280633,336,145.285
B,6,3136620,sinestep7.wav,None,1000,17,3282633,338,147.285
B,6,3136620,vowelstep5.wav,None,1000,17,3284633,314,149.285
B,6,3136620,vowelstep1.wav,None,1000,17,3286633,316,151.285
B,6,3136620,sinestep3.wav,None,1000,17,3288633,328,153.285
B,6,3136620,silence.wav,None,1000,17,3290633,325,155.285
B,6,3136620,silence.wav,None,1000,17,3292633,336,157.285
B,6,3136620,sinestep7_catch.wav,2,417,17,3294633,339,159.285
B,6,3136620,vowelstep5.wav,None,1000,17,3296634,916,161.285
B,6,3136620,sinestep7.wav,None,1000,17,3298633,314,163.285
B,6,3136620,vowelstep5.wav,None,1000,17,3300633,324,165.285
B,6,3136620,vowelstep3.wav,None,1000,17,3302633,329,167.285
B,6,3136620,silence.wav,None,1000,17,3304633,320,169.285
B,6,3136620,sinestep3.wav,None,1000,17,3306633,328,171.285
B,6,3136620,sinestep7_catch.wav,2,164,17,3308633,337,173.285
B,6,3136620,sinestep3.wav,None,1000,17,3310633,1173,175.285
B,6,3136620,sinestep5_catch.wav,2,42,17,3312633,337,177.285
B,6,3136620,vowelstep5.wav,None,1000,17,3314634,1303,179.285
B,6,3136620,silence.wav,None,1000,17,3316634,324,181.285
B,6,3136620,sinestep7.wav,None,1000,17,3318634,326,183.285
B,6,3136620,silence.wav,None,1000,17,3320634,325,185.285
B,6,3136620,sinestep3.wav,None,1000,17,3322634,328,187.285
B,6,3136620,silence.wav,None,1000,17,3324633,338,189.285
B,6,3136620,vowelstep7.wav,None,1000,17,3326633,336,191.285
B,6,3136620,vowelstep3.wav,None,1000,17,3328633,347,193.285
B,6,3136620,vowelstep3.wav,None,1000,17,3330634,327,195.285
B,6,3136620,sinestep7.wav,None,1000,17,3332634,323,197.285
B,6,3136620,sinestep7.wav,None,1000,17,3334634,323,199.285
B,6,3136620,sinestep3.wav,None,1000,17,3336634,332,201.285
B,6,3136620,sinestep3_catch.wav,2,180,17,3338634,334,203.285
B,6,3136620,sinestep1.wav,None,1000,17,3340634,1155,205.285
B,6,3136620,sinestep1.wav,None,1000,17,3342634,345,207.285
B,6,3136620,sinestep3.wav,None,1000,17,3344634,326,209.285
B,6,3136620,silence.wav,None,1000,17,3346633,324,211.285
B,6,3136620,silence.wav,None,1000,17,3348634,326,213.285
B,6,3136620,sinestep5_catch.wav,2,274,17,3350634,322,215.285
B,6,3136620,sinestep7.wav,None,1000,17,3352634,1060,217.285
B,6,3136620,sinestep7.wav,None,1000,17,3354634,330,219.285
B,6,3136620,vowelstep3.wav,None,1000,17,3356634,316,221.285
B,6,3136620,sinestep1_catch.wav,2,196,17,3358634,313,223.285
B,6,3136620,vowelstep5.wav,None,1000,17,3360634,1129,225.285
B,6,3136620,sinestep1.wav,None,1000,17,3362634,326,227.285
B,6,3136620,vowelstep1.wav,None,1000,17,3364634,333,229.285
B,6,3136620,vowelstep1.wav,None,1000,17,3366635,334,231.285
B,6,3136620,sinestep5.wav,None,1000,17,3368635,332,233.285
B,6,3136620,silence.wav,None,1000,17,3370635,334,235.285
B,6,3136620,silence.wav,None,1000,17,3372634,322,237.285
B,6,3136620,vowelstep1.wav,None,1000,17,3374634,324,239.285
B,6,3136620,vowelstep1.wav,None,1000,17,3376634,325,241.285
B,6,3136620,silence.wav,None,1000,17,3378634,334,243.285
B,6,3136620,vowelstep1_catch.wav,2,186,17,3380634,331,245.285
B,6,3136620,sinestep7.wav,None,1000,17,3382635,1146,247.285
B,6,3136620,sinestep1.wav,None,1000,17,3384635,333,249.285
B,6,3136620,vowelstep1.wav,None,1000,17,3386635,312,251.285
B,6,3136620,vowelstep3.wav,None,1000,17,3388635,322,253.285
B,6,3136620,sinestep3.wav,None,1000,17,3390635,324,255.285
B,6,3136620,silence.wav,None,1000,17,3392635,333,257.285
B,6,3136620,vowelstep3.wav,None,1000,17,3394635,334,259.285
B,6,3136620,silence.wav,None,1000,17,3396634,330,261.285
B,6,3136620,vowelstep3.wav,None,1000,17,3398634,334,263.285
B,6,3136620,sinestep5.wav,None,1000,17,3400635,319,265.285
B,6,3136620,vowelstep3_catch.wav,2,205,17,3402635,323,267.285
B,6,3136620,sinestep3.wav,None,1000,17,3404635,1111,269.285
B,6,3136620,sinestep1.wav,None,1000,17,3406635,322,271.285
B,6,3136620,vowelstep3.wav,None,1000,17,3408635,330,273.285
B,6,3136620,vowelstep1.wav,None,1000,17,3410635,332,275.285
B,6,3136620,vowelstep5_catch.wav,2,972,17,3412635,332,277.285
B,6,3136620,vowelstep1.wav,None,1000,17,3414635,366,279.285
B,6,3136620,vowelstep5.wav,None,1000,17,3416635,321,281.285
B,6,3136620,sinestep7.wav,None,1000,17,3418636,320,283.285
B,6,3136620,vowelstep7.wav,None,1000,17,3420636,318,285.285
B,6,3136620,vowelstep1_catch.wav,2,171,17,3422635,331,287.285
B,6,3136620,sinestep1.wav,None,1000,17,3424635,1157,289.285
B,6,3136620,vowelstep1.wav,None,1000,17,3426635,331,291.285
B,6,3136620,sinestep5.wav,None,1000,17,3428635,308,293.285
B,6,3136620,vowelstep7.wav,None,1000,17,3430635,319,295.285
B,6,3136620,sinestep7.wav,None,1000,17,3432635,321,297.285
B,6,3136620,vowelstep7_catch.wav,2,155,17,3434635,320,299.285
B,6,3136620,sinestep3.wav,None,1000,17,3436636,1174,301.285
B,6,3136620,vowelstep3.wav,None,1000,17,3438636,330,303.285
B,6,3136620,sinestep5.wav,None,1000,17,3440636,329,305.285
B,6,3136620,vowelstep1.wav,None,1000,17,3442636,340,307.285
B,6,3136620,vowelstep7.wav,None,1000,17,3444635,320,309.285
B,6,3136620,vowelstep1.wav,None,1000,17,3446635,319,311.285
B,6,3136620,sinestep7.wav,None,1000,17,3448635,319,313.285
B,6,3136620,sinestep3.wav,None,1000,17,3450635,311,315.285
B,6,3136620,silence.wav,None,1000,17,3452636,322,317.285
B,6,3136620,vowelstep1.wav,None,1000,17,3454636,331,319.285
H,7,3511075,sinestep3.wav,None,1000,17,3511087,0,1.285
H,7,3511075,sinestep7.wav,None,1000,17,3513087,321,3.285
H,7,3511075,sinestep3.wav,None,1000,17,3515087,323,5.285
H,7,3511075,vowelstep3.wav,None,1000,17,3517086,323,7.285
H,7,3511075,vowelstep1.wav,None,1000,17,3519086,332,9.285
H,7,3511075,sinestep7.wav,None,1000,17,3521086,329,11.285
H,7,3511075,vowelstep3.wav,None,1000,17,3523087,332,13.285
H,7,3511075,silence.wav,None,1000,17,3525087,313,15.285
H,7,3511075,vowelstep1.wav,None,1000,17,3527087,323,17.285
H,7,3511075,sinestep5.wav,None,1000,17,3529087,323,19.285
H,7,3511075,sinestep7.wav,None,1000,17,3531087,320,21.285
H,7,3511075,vowelstep7.wav,None,1000,17,3533087,330,23.285
H,7,3511075,vowelstep1_catch.wav,2,210,17,3535087,333,25.285
H,7,3511075,sinestep5.wav,None,1000,17,3537087,1122,27.285
H,7,3511075,vowelstep5.wav,None,1000,17,3539087,343,29.285
H,7,3511075,silence.wav,None,1000,17,3541088,323,31.285
H,7,3511075,vowelstep3_catch.wav,2,204,17,3543087,322,33.285
H,7,3511075,sinestep7.wav,None,1000,17,3545087,1118,35.285
H,7,3511075,sinestep5.wav,None,1000,17,3547087,319,37.285
H,7,3511075,silence.wav,None,1000,17,3549087,331,39.285
H,7,3511075,vowelstep3.wav,None,1000,17,3551087,333,41.285
H,7,3511075,vowelstep1.wav,None,1000,17,3553087,341,43.285
H,7,3511075,vowelstep1.wav,None,1000,17,3555087,312,45.285
H,7,3511075,vowelstep3.wav,None,1000,17,3557087,322,47.285
H,7,3511075,sinestep3.wav,None,1000,17,3559088,321,49.285
H,7,3511075,vowelstep1.wav,None,1000,17,3561088,321,51.285
H,7,3511075,sinestep7.wav,None,1000,17,3563088,331,53.285
H,7,3511075,vowelstep7.wav,None,1000,17,3565088,332,55.285
H,7,3511075,vowelstep5_catch.wav,2,225,17,3567087,331,57.285
H,7,3511075,vowelstep5.wav,None,1000,17,3569087,1096,59.285
H,7,3511075,vowelstep3.wav,None,1000,17,3571087,318,61.285
H,7,3511075,vowelstep7_catch.wav,2,94,17,3573087,319,63.285
H,7,3511075,sinestep3.wav,None,1000,17,3575088,1224,65.285
H,7,3511075,sinestep1.wav,None,1000,17,3577088,330,67.285
H,7,3511075,sinestep7.wav,None,1000,17,3579088,324,69.285
H,7,3511075,silence.wav,None,1000,17,3581088,339,71.285
H,7,3511075,vowelstep1.wav,None,1000,17,3583088,306,73.285
H,7,3511075,vowelstep7.wav,None,1000,17,3585088,321,75.285
H,7,3511075,sinestep7.wav,None,1000,17,3587088,317,77.285
H,7,3511075,sinestep1.wav,None,1000,17,3589088,321,79.285
H,7,3511075,sinestep7.wav,None,1000,17,3591087,331,81.285
H,7,3511075,sinestep1.wav,None,1000,17,3593088,330,83.285
H,7,3511075,vowelstep5.wav,None,1000,17,3595088,328,85.285
H,7,3511075,sinestep3.wav,None,1000,17,3597088,339,87.285
H,7,3511075,vowelstep5.wav,None,1000,17,3599088,319,89.285
H,7,3511075,silence.wav,None,1000,17,3601088,317,91.285
H,7,3511075,silence.wav,None,1000,17,3603088,319,93.285
H,7,3511075,sinestep5.wav,None,1000,17,3605088,327,95.285
H,7,3511075,sinestep3.wav,None,1000,17,3607088,329,97.285
H,7,3511075,sinestep7.wav,None,1000,17,3609088,330,99.285
H,7,3511075,sinestep7_catch.wav,2,539,17,3611089,336,101.285
H,7,3511075,silence.wav,None,1000,17,3613089,779,103.285
H,7,3511075,sinestep3.wav,None,1000,17,3615088,315,105.285
H,7,3511075,silence.wav,None,1000,17,3617088,319,107.285
H,7,3511075,vowelstep1.wav,None,1000,17,3619088,324,109.285
H,7,3511075,vowelstep7.wav,None,1000,17,3621088,329,111.285
H,7,3511075,sinestep5.wav,None,1000,17,3623088,327,113.285
H,7,3511075,silence.wav,None,1000,17,3625088,338,115.285
H,7,3511075,vowelstep7.wav,None,1000,17,3627088,316,117.285
H,7,3511075,vowelstep3.wav,None,1000,17,3629089,317,119.285
H,7,3511075,sinestep5.wav,None,1000,17,3631089,332,121.285
H,7,3511075,sinestep1.wav,None,1000,17,3633089,324,123.285
H,7,3511075,vowelstep3.wav,None,1000,17,3635089,326,125.285
H,7,3511075,vowelstep3.wav,None,1000,17,3637089,325,127.285
H,7,3511075,vowelstep5.wav,None,1000,17,3639089,336,129.285
H,7,3511075,vowelstep1.wav,None,1000,17,3641088,337,131.285
H,7,3511075,vowelstep7.wav,None,1000,17,3643088,334,133.285
H,7,3511075,vowelstep3.wav,None,1000,17,3645089,345,135.285
H,7,3511075,vowelstep5.wav,None,1000,17,3647089,325,137.285
H,7,3511075,vowelstep5.wav,None,1000,17,3649089,327,139.285
H,7,3511075,sinestep7.wav,None,1000,17,3651089,325,141.285
H,7,3511075,vowelstep1.wav,None,1000,17,3653089,336,143.285
H,7,3511075,sinestep3.wav,None,1000,17,3655089,336,145.285
H,7,3511075,sinestep1.wav,None,1000,17,3657089,337,147.285
H,7,3511075,vowelstep1.wav,None,1000,17,3659089,339,149.285
H,7,3511075,sinestep5_catch.wav,2,770,17,3661089,320,151.285
H,7,3511075,sinestep7.wav,None,1000,17,3663090,547,153.285
H,7,3511075,sinestep3_catch.wav,2,145,17,3665089,318,155.285
H,7,3511075,sinestep7.wav,None,1000,17,3667089,1175,157.285
H,7,3511075,sinestep5.wav,None,1000,17,3669089,328,159.285
H,7,3511075,silence.wav,None,1000,17,3671089,328,161.285
H,7,3511075,sinestep1_catch.wav,2,187,17,3673089,342,163.285
H,7,3511075,vowelstep7.wav,None,1000,17,3675089,1123,165.285
H,7,3511075,vowelstep7.wav,None,1000,17,3677089,321,167.285
H,7,3511075,sinestep7.wav,None,1000,17,3679089,318,169.285
H,7,3511075,sinestep3.wav,None,1000,17,3681090,331,171.285
H,7,3511075,sinestep5.wav,None,1000,17,3683090,326,173.285
H,7,3511075,vowelstep1_catch.wav,2,385,17,3685090,330,175.285
H,7,3511075,vowelstep1.wav,None,1000,17,3687090,938,177.285
H,7,3511075,sinestep3.wav,None,1000,17,3689089,310,179.285
H,7,3511075,sinestep3.wav,None,1000,17,3691089,315,181.285
H,7,3511075,vowelstep5.wav,None,1000,17,3693089,319,183.285
H,7,3511075,sinestep1.wav,None,1000,17,3695089,327,185.285
H,7,3511075,sinestep1.wav,None,1000,17,3697089,333,187.285
H,7,3511075,vowelstep7.wav,None,1000,17,3699090,325,189.285
H,7,3511075,sinestep1.wav,None,1000,17,3701090,329,191.285
H,7,3511075,sinestep5.wav,None,1000,17,3703090,336,193.285
H,7,3511075,vowelstep3_catch.wav,2,242,17,3705090,321,195.285
H,7,3511075,sinestep1.wav,None,1000,17,3707090,1077,197.285
H,7,3511075,silence.wav,None,1000,17,3709090,316,199.285
H,7,3511075,vowelstep1.wav,None,1000,17,3711090,329,201.285
H,7,3511075,vowelstep5_catch.wav,2,183,17,3713089,324,203.285
H,7,3511075,sinestep5.wav,None,1000,17,3715090,1145,205.285
H,7,3511075,sinestep1.wav,None,1000,17,3717090,305,207.285
H,7,3511075,silence.wav,None,1000,17,3719090,319,209.285
H,7,3511075,sinestep3.wav,None,1000,17,3721090,317,211.285
H,7,3511075,silence.wav,None,1000,17,3723090,315,213.285
H,7,3511075,vowelstep7_catch.wav,2,147,17,3725090,330,215.285
H,7,3511075,vowelstep5.wav,None,1000,17,3727090,1176,217.285
H,7,3511075,sinestep7.wav,None,1000,17,3729090,329,219.285
H,7,3511075,silence.wav,None,1000,17,3731090,326,221.285
H,7,3511075,sinestep1.wav,None,1000,17,3733091,321,223.285
H,7,3511075,silence.wav,None,1000,17,3735091,317,225.285
H,7,3511075,silence.wav,None,1000,17,3737090,320,227.285
H,7,3511075,silence.wav,None,1000,17,3739090,326,229.285
H,7,3511075,silence.wav,None,1000,17,3741090,332,231.285
H,7,3511075,sinestep5.wav,None,1000,17,3743090,325,233.285
H,7,3511075,silence.wav,None,1000,17,3745090,340,235.285
H,7,3511075,vowelstep3.wav,None,1000,17,3747090,314,237.285
H,7,3511075,silence.wav,None,1000,17,3749090,318,239.285
H,7,3511075,silence.wav,None,1000,17,3751091,312,241.285
H,7,3511075,vowelstep1_catch.wav,2,349,17,3753091,327,243.285
H,7,3511075,vowelstep5.wav,None,1000,17,3755091,970,245.285
H,7,3511075,vowelstep7.wav,None,1000,17,3757091,328,247.285
H,7,3511075,vowelstep3_catch.wav,None,1000,17,3759091,332,249.285
H,7,3511075,vowelstep1.wav,None,1000,17,3761090,319,251.285
H,7,3511075,sinestep3.wav,None,1000,17,3763090,317,253.285
H,7,3511075,vowelstep5_catch.wav,2,169,17,3765090,319,255.285
H,7,3511075,vowelstep5.wav,None,1000,17,3767090,1158,257.285
H,7,3511075,silence.wav,None,1000,17,3769091,327,259.285
H,7,3511075,vowelstep7.wav,None,1000,17,3771091,324,261.285
H,7,3511075,sinestep5.wav,None,1000,17,3773091,338,263.285
H,7,3511075,vowelstep5.wav,None,1000,17,3775091,307,265.285
H,7,3511075,vowelstep7.wav,None,1000,17,3777091,314,267.285
H,7,3511075,vowelstep3.wav,None,1000,17,3779091,317,269.285
H,7,3511075,vowelstep3.wav,None,1000,17,3781091,316,271.285
H,7,3511075,silence.wav,None,1000,17,3783091,326,273.285
H,7,3511075,vowelstep3.wav,None,1000,17,3785092,323,275.285
H,7,3511075,sinestep1.wav,None,1000,17,3787091,336,277.285
H,7,3511075,silence.wav,None,1000,17,3789091,305,279.285
H,7,3511075,sinestep1.wav,None,1000,17,3791091,317,281.285
H,7,3511075,vowelstep3.wav,None,1000,17,3793091,314,283.285
H,7,3511075,silence.wav,None,1000,17,3795091,312,285.285
H,7,3511075,vowelstep5.wav,None,1000,17,3797091,326,287.285
H,7,3511075,vowelstep5.wav,None,1000,17,3799091,325,289.285
H,7,3511075,vowelstep1.wav,None,1000,17,3801091,327,291.285
H,7,3511075,sinestep5.wav,None,1000,17,3803092,335,293.285
H,7,3511075,vowelstep7.wav,None,1000,17,3805092,316,295.285
H,7,3511075,vowelstep1.wav,None,1000,17,3807092,315,297.285
H,7,3511075,vowelstep7.wav,None,1000,17,3809092,325,299.285
H,7,3511075,vowelstep3.wav,None,1000,17,3811091,322,301.285
H,7,3511075,sinestep1.wav,None,1000,17,3813091,323,303.285
H,7,3511075,sinestep5.wav,None,1000,17,3815091,334,305.285
H,7,3511075,vowelstep5.wav,None,1000,17,3817091,306,307.285
H,7,3511075,sinestep3.wav,None,1000,17,3819091,315,309.285
H,7,3511075,vowelstep7.wav,None,1000,17,3821092,314,311.285
H,7,3511075,sinestep7.wav,None,1000,17,3823092,323,313.285
H,7,3511075,sinestep5.wav,None,1000,17,3825092,325,315.285
H,7,3511075,sinestep3.wav,None,1000,17,3827092,318,317.285
H,7,3511075,sinestep1.wav,None,1000,17,3829092,323,319.285
D,8,3887614,sinestep5.wav,None,1000,17,3887626,0,1.285
D,8,3887614,vowelstep1_catch.wav,2,326,17,3889627,341,3.285
D,8,3887614,sinestep7.wav,None,1000,17,3891626,976,5.285
D,8,3887614,vowelstep3.wav,None,1000,17,3893626,312,7.285
D,8,3887614,vowelstep3_catch.wav,2,280,17,3895626,316,9.285
D,8,3887614,vowelstep5_catch.wav,2,274,17,3897626,1035,11.285
D,8,3887614,sinestep7.wav,None,1000,17,3899626,1052,13.285
D,8,3887614,silence.wav,None,1000,17,3901626,322,15.285
D,8,3887614,vowelstep7_catch.wav,2,705,17,3903626,326,17.285
D,8,3887614,vowelstep7.wav,None,1000,17,3905626,596,19.285
D,8,3887614,vowelstep3.wav,None,1000,17,3907627,311,21.285
D,8,3887614,vowelstep7_catch.wav,2,122,17,3909627,314,23.285
D,8,3887614,vowelstep5.wav,None,1000,17,3911627,1190,25.285
D,8,3887614,sinestep7.wav,None,1000,17,3913627,324,27.285
D,8,3887614,silence.wav,None,1000,17,3915626,326,29.285
D,8,3887614,vowelstep1.wav,None,1000,17,3917626,327,31.285
D,8,3887614,vowelstep1.wav,None,1000,17,3919626,336,33.285
D,8,3887614,vowelstep7.wav,None,1000,17,3921626,317,35.285
D,8,3887614,vowelstep3.wav,None,1000,17,3923626,314,37.285
D,8,3887614,sinestep3.wav,None,1000,17,3925627,317,39.285
D,8,3887614,sinestep1.wav,None,1000,17,3927627,327,41.285
D,8,3887614,vowelstep1.wav,None,1000,17,3929627,321,43.285
D,8,3887614,vowelstep1.wav,None,1000,17,3931627,326,45.285
D,8,3887614,sinestep7.wav,None,1000,17,3933627,305,47.285
D,8,3887614,sinestep3.wav,None,1000,17,3935627,317,49.285
D,8,3887614,vowelstep5_catch.wav,2,159,17,3937627,95,51.285
D,8,3887614,sinestep7.wav,None,1000,17,3939627,1162,53.285
D,8,3887614,vowelstep5.wav,None,1000,17,3941626,328,55.285
D,8,3887614,sinestep3.wav,None,1000,17,3943627,323,57.285
D,8,3887614,sinestep7.wav,None,1000,17,3945627,325,59.285
D,8,3887614,vowelstep3.wav,None,1000,17,3947627,323,61.285
D,8,3887614,vowelstep3.wav,None,1000,17,3949627,316,63.285
D,8,3887614,vowelstep3_catch.wav,2,152,17,3951627,335,65.285
D,8,3887614,silence.wav,None,1000,17,3953627,1163,67.285
D,8,3887614,vowelstep7.wav,None,1000,17,3955627,322,69.285
D,8,3887614,silence.wav,None,1000,17,3957627,325,71.285
D,8,3887614,sinestep1.wav,None,1000,17,3959628,324,73.285
D,8,3887614,vowelstep5.wav,None,1000,17,3961628,297,75.285
D,8,3887614,vowelstep1.wav,None,1000,17,3963628,330,77.285
D,8,3887614,sinestep7.wav,None,1000,17,3965627,334,79.285
D,8,3887614,vowelstep1.wav,None,1000,17,3967627,346,81.285
D,8,3887614,sinestep7.wav,None,1000,17,3969627,325,83.285
D,8,3887614,vowelstep7.wav,None,1000,17,3971627,291,85.285
D,8,3887614,vowelstep5.wav,None,1000,17,3973627,319,87.285
D,8,3887614,vowelstep1.wav,None,1000,17,3975627,329,89.285
D,8,3887614,sinestep5.wav,None,1000,17,3977628,331,91.285
D,8,3887614,sinestep5.wav,None,1000,17,3979628,328,93.285
D,8,3887614,vowelstep3.wav,None,1000,17,3981628,341,95.285
D,8,3887614,silence.wav,None,1000,17,3983628,340,97.285
D,8,3887614,sinestep1.wav,None,1000,17,3985628,321,99.285
D,8,3887614,sinestep1.wav,None,1000,17,3987627,319,101.285
D,8,3887614,sinestep3.wav,None,1000,17,3989627,328,103.285
D,8,3887614,vowelstep1.wav,None,1000,17,3991627,332,105.285
D,8,3887614,sinestep7.wav,None,1000,17,3993627,328,107.285
D,8,3887614,vowelstep3.wav,None,1000,17,3995628,342,109.285
D,8,3887614,silence.wav,None,1000,17,3997628,309,111.285
D,8,3887614,vowelstep5.wav,None,1000,17,3999628,303,113.285
D,8,3887614,vowelstep1.wav,None,1000,17,4001628,320,115.285
D,8,3887614,vowelstep1_catch.wav,2,245,17,4003628,327,117.285
D,8,3887614,vowelstep7.wav,None,1000,17,4005628,1083,119.285
D,8,3887614,sinestep5.wav,None,1000,17,4007628,331,121.285
D,8,3887614,vowelstep7.wav,None,1000,17,4009628,329,123.285
D,8,3887614,sinestep1.wav,None,1000,17,4011628,320,125.285
D,8,3887614,sinestep1.wav,None,1000,17,4013628,318,127.285
D,8,3887614,vowelstep3.wav,None,1000,17,4015628,319,129.285
D,8,3887614,sinestep1.wav,None,1000,17,4017628,320,131.285
D,8,3887614,silence.wav,None,1000,17,4019628,330,133.285
D,8,3887614,sinestep3.wav,None,1000,17,4021628,329,135.285
D,8,3887614,silence.wav,None,1000,17,4023628,340,137.285
D,8,3887614,vowelstep3.wav,None,1000,17,4025628,309,139.285
D,8,3887614,vowelstep5.wav,None,1000,17,4027628,316,141.285
D,8,3887614,silence.wav,None,1000,17,4029629,320,143.285
D,8,3887614,sinestep5.wav,None,1000,17,4031629,328,145.285
D,8,3887614,sinestep5.wav,None,1000,17,4033629,331,147.285
D,8,3887614,sinestep1.wav,None,1000,17,4035629,327,149.285
D,8,3887614,vowelstep5.wav,None,1000,17,4037628,329,151.285
D,8,3887614,vowelstep5.wav,None,1000,17,4039628,311,153.285
D,8,3887614,sinestep1_catch.wav,2,194,17,4041628,316,155.285
D,8,3887614,sinestep5.wav,None,1000,17,4043628,1127,157.285
D,8,3887614,vowelstep3.wav,None,1000,17,4045628,320,159.285
D,8,3887614,vowelstep7.wav,None,1000,17,4047629,330,161.285
D,8,3887614,vowelstep3.wav,None,1000,17,4049629,330,163.285
D,8,3887614,sinestep3.wav,None,1000,17,4051629,336,165.285
D,8,3887614,sinestep1.wav,None,1000,17,4053629,338,167.285
D,8,3887614,silence.wav,None,1000,17,4055629,318,169.285
D,8,3887614,sinestep1.wav,None,1000,17,4057629,318,171.285
D,8,3887614,vowelstep1.wav,None,1000,17,4059629,320,173.285
D,8,3887614,vowelstep3.wav,None,1000,17,4061628,328,175.285
D,8,3887614,silence.wav,None,1000,17,4063628,328,177.285
D,8,3887614,sinestep7.wav,None,1000,17,4065629,329,179.285
D,8,3887614,silence.wav,None,1000,17,4067629,335,181.285
D,8,3887614,vowelstep7.wav,None,1000,17,4069629,319,183.285
D,8,3887614,sinestep3.wav,None,1000,17,4071629,314,185.285
D,8,3887614,vowelstep1.wav,None,1000,17,4073629,317,187.285
D,8,3887614,sinestep7.wav,None,1000,17,4075629,329,189.285
D,8,3887614,silence.wav,None,1000,17,4077629,326,191.285
D,8,3887614,sinestep1.wav,None,1000,17,4079629,328,193.285
D,8,3887614,sinestep3.wav,None,1000,17,4081629,339,195.285
D,8,3887614,sinestep5.wav,None,1000,17,4083630,314,197.285
D,8,3887614,vowelstep3.wav,None,1000,17,4085630,317,199.285
D,8,3887614,sinestep5.wav,None,1000,17,4087629,301,201.285
D,8,3887614,sinestep5.wav,None,1000,17,4089629,327,203.285
D,8,3887614,sinestep3.wav,None,1000,17,4091629,326,205.285
D,8,3887614,sinestep3.wav,None,1000,17,4093629,327,207.285
D,8,3887614,sinestep5.wav,None,1000,17,4095629,337,209.285
D,8,3887614,sinestep3_catch.wav,2,233,17,4097629,317,211.285
D,8,3887614,vowelstep7.wav,None,1000,17,4099630,1083,213.285
D,8,3887614,sinestep1.wav,None,1000,17,4101630,313,215.285
D,8,3887614,sinestep7.wav,None,1000,17,4103630,327,217.285
D,8,3887614,vowelstep1.wav,None,1000,17,4105630,322,219.285
D,8,3887614,sinestep5.wav,None,1000,17,4107630,326,221.285
D,8,3887614,silence.wav,None,1000,17,4109629,335,223.285
D,8,3887614,sinestep5_catch.wav,2,164,17,4111629,317,225.285
D,8,3887614,sinestep5.wav,None,1000,17,4113629,1151,227.285
D,8,3887614,silence.wav,None,1000,17,4115629,313,229.285
D,8,3887614,vowelstep7.wav,None,1000,17,4117630,316,231.285
D,8,3887614,sinestep3.wav,None,1000,17,4119630,325,233.285
D,8,3887614,vowelstep5.wav,None,1000,17,4121630,315,235.285
D,8,3887614,vowelstep7.wav,None,1000,17,4123630,325,237.285
D,8,3887614,vowelstep5.wav,None,1000,17,4125630,305,239.285
D,8,3887614,silence.wav,None,1000,17,4127630,315,241.285
D,8,3887614,silence.wav,None,1000,17,4129630,316,243.285
D,8,3887614,silence.wav,None,1000,17,4131630,322,245.285
D,8,3887614,sinestep7.wav,None,1000,17,4133629,325,247.285
D,8,3887614,sinestep5.wav,None,1000,17,4135630,321,249.285
D,8,3887614,sinestep7_catch.wav,2,910,17,4137630,323,251.285
D,8,3887614,vowelstep1.wav,None,1000,17,4139630,394,253.285
D,8,3887614,vowelstep1.wav,None,1000,17,4141630,312,255.285
D,8,3887614,vowelstep3.wav,None,1000,17,4143630,314,257.285
D,8,3887614,silence.wav,None,1000,17,4145630,315,259.285
D,8,3887614,sinestep5.wav,None,1000,17,4147630,321,261.285
D,8,3887614,vowelstep7.wav,None,1000,17,4149630,323,263.285
D,8,3887614,vowelstep3.wav,None,1000,17,4151630,325,265.285
D,8,3887614,vowelstep7.wav,None,1000,17,4153631,327,267.285
D,8,3887614,vowelstep5.wav,None,1000,17,4155631,312,269.285
D,8,3887614,sinestep1.wav,None,1000,17,4157631,313,271.285
D,8,3887614,sinestep7.wav,None,1000,17,4159630,311,273.285
D,8,3887614,sinestep3.wav,None,1000,17,4161630,320,275.285
D,8,3887614,silence.wav,None,1000,17,4163630,322,277.285
D,8,3887614,sinestep7.wav,None,1000,17,4165630,322,279.285
D,8,3887614,vowelstep5.wav,None,1000,17,4167630,298,281.285
D,8,3887614,sinestep1.wav,None,1000,17,4169631,312,283.285
D,8,3887614,vowelstep1.wav,None,1000,17,4171631,307,285.285
D,8,3887614,sinestep1.wav,None,1000,17,4173631,300,287.285
D,8,3887614,vowelstep5.wav,None,1000,17,4175631,321,289.285
D,8,3887614,silence.wav,None,1000,17,4177631,322,291.285
D,8,3887614,sinestep3.wav,None,1000,17,4179631,319,293.285
D,8,3887614,vowelstep5.wav,None,1000,17,4181631,304,295.285
D,8,3887614,silence.wav,None,1000,17,4183630,307,297.285
D,8,3887614,sinestep3.wav,None,1000,17,4185630,311,299.285
D,8,3887614,vowelstep7.wav,None,1000,17,4187631,343,301.285
D,8,3887614,sinestep7_catch.wav,2,162,17,4189631,320,303.285
D,8,3887614,sinestep5_catch.wav,2,273,17,4191631,1159,305.285
D,8,3887614,sinestep3.wav,None,1000,17,4193631,1058,307.285
D,8,3887614,vowelstep5.wav,None,1000,17,4195631,327,309.285
D,8,3887614,silence.wav,None,1000,17,4197631,332,311.285
D,8,3887614,sinestep3_catch.wav,2,224,17,4199631,326,313.285
D,8,3887614,silence.wav,None,1000,17,4201631,1115,315.285
D,8,3887614,vowelstep7.wav,None,1000,17,4203631,322,317.285
D,8,3887614,silence.wav,None,1000,17,4205632,319,319.285
F,9,4262434,sinestep1.wav,None,1000,17,4262449,0,1.285
F,9,4262434,vowelstep5.wav,None,1000,17,4264449,328,3.285
F,9,4262434,vowelstep3.wav,None,1000,17,4266449,324,5.285
F,9,4262434,sinestep5.wav,None,1000,17,4268449,325,7.285
F,9,4262434,vowelstep7.wav,None,1000,17,4270449,315,9.285
F,9,4262434,silence.wav,None,1000,17,4272448,317,11.285
F,9,4262434,vowelstep5.wav,None,1000,17,4274449,310,13.285
F,9,4262434,sinestep3.wav,None,1000,17,4276449,312,15.285
F,9,4262434,sinestep3.wav,None,1000,17,4278449,321,17.285
F,9,4262434,silence.wav,None,1000,17,4280449,322,19.285
F,9,4262434,vowelstep7.wav,None,1000,17,4282449,319,21.285
F,9,4262434,vowelstep7.wav,None,1000,17,4284449,313,23.285
F,9,4262434,vowelstep1_catch.wav,2,199,17,4286449,314,25.285
F,9,4262434,vowelstep3_catch.wav,2,193,17,4288449,1116,27.285
F,9,4262434,vowelstep1.wav,None,1000,17,4290449,1122,29.285
F,9,4262434,sinestep5.wav,None,1000,17,4292450,323,31.285
F,9,4262434,sinestep5.wav,None,1000,17,4294450,323,33.285
F,9,4262434,vowelstep7.wav,None,1000,17,4296449,325,35.285
F,9,4262434,sinestep3.wav,None,1000,17,4298449,304,37.285
F,9,4262434,sinestep7.wav,None,1000,17,4300449,312,39.285
F,9,4262434,vowelstep5_catch.wav,2,278,17,4302449,315,41.285
F,9,4262434,sinestep1.wav,None,1000,17,4304449,1032,43.285
F,9,4262434,vowelstep7_catch.wav,2,244,17,4306449,324,45.285
F,9,4262434,vowelstep3.wav,None,1000,17,4308449,1081,47.285
F,9,4262434,sinestep1.wav,None,1000,17,4310450,323,49.285
F,9,4262434,sinestep7.wav,None,1000,17,4312450,330,51.285
F,9,4262434,silence.wav,None,1000,17,4314450,312,53.285
F,9,4262434,sinestep7.wav,None,1000,17,4316450,312,55.285
F,9,4262434,vowelstep1.wav,None,1000,17,4318450,313,57.285
F,9,4262434,vowelstep3.wav,None,1000,17,4320450,322,59.285
F,9,4262434,vowelstep7_catch.wav,2,220,17,4322449,325,61.285
F,9,4262434,sinestep5.wav,None,1000,17,4324449,1100,63.285
F,9,4262434,sinestep3.wav,None,1000,17,4326449,334,65.285
F,9,4262434,vowelstep3.wav,None,1000,17,4328450,312,67.285
F,9,4262434,silence.wav,None,1000,17,4330450,307,69.285
F,9,4262434,vowelstep1.wav,None,1000,17,4332450,312,71.285
F,9,4262434,vowelstep1.wav,None,1000,17,4334450,316,73.285
F,9,4262434,vowelstep5_catch.wav,2,266,17,4336450,322,75.285
F,9,4262434,silence.wav,None,1000,17,4338450,1056,77.285
F,9,4262434,vowelstep3.wav,None,1000,17,4340450,329,79.285
F,9,4262434,vowelstep5.wav,None,1000,17,4342450,312,81.285
F,9,4262434,vowelstep3_catch.wav,2,630,17,4344451,310,83.285
F,9,4262434,vowelstep3.wav,None,1000,17,4346450,676,85.285
F,9,4262434,sinestep7.wav,None,1000,17,4348450,322,87.285
F,9,4262434,vowelstep1.wav,None,1000,17,4350450,316,89.285
F,9,4262434,sinestep1.wav,None,1000,17,4352450,322,91.285
F,9,4262434,vowelstep1_catch.wav,2,142,17,4354450,324,93.285
F,9,4262434,vowelstep5.wav,None,1000,17,4356450,1186,95.285
F,9,4262434,sinestep7.wav,None,1000,17,4358450,305,97.285
F,9,4262434,vowelstep7.wav,None,1000,17,4360450,330,99.285
F,9,4262434,vowelstep3.wav,None,1000,17,4362451,315,101.285
F,9,4262434,sinestep3.wav,None,1000,17,4364451,317,103.285
F,9,4262434,silence.wav,None,1000,17,4366451,317,105.285
F,9,4262434,sinestep1.wav,None,1000,17,4368451,296,107.285
F,9,4262434,sinestep1.wav,None,1000,17,4370450,328,109.285
F,9,4262434,silence.wav,None,1000,17,4372450,326,111.285
F,9,4262434,sinestep7.wav,None,1000,17,4374450,328,113.285
F,9,4262434,vowelstep3.wav,None,1000,17,4376450,318,115.285
F,9,4262434,sinestep3.wav,None,1000,17,4378450,315,117.285
F,9,4262434,vowelstep3.wav,None,1000,17,4380451,315,119.285
F,9,4262434,vowelstep7.wav,None,1000,17,4382451,316,121.285
F,9,4262434,vowelstep7.wav,None,1000,17,4384451,327,123.285
F,9,4262434,vowelstep5.wav,None,1000,17,4386451,317,125.285
F,9,4262434,sinestep1.wav,None,1000,17,4388451,327,127.285
F,9,4262434,silence.wav,None,1000,17,4390451,302,129.285
F,9,4262434,sinestep1.wav,None,1000,17,4392451,313,131.285
F,9,4262434,sinestep3.wav,None,1000,17,4394450,312,133.285
F,9,4262434,sinestep1_catch.wav,2,214,17,4396450,309,135.285
F,9,4262434,sinestep3.wav,None,1000,17,4398451,1108,137.285
F,9,4262434,sinestep3.wav,None,1000,17,4400451,324,139.285
F,9,4262434,silence.wav,None,1000,17,4402451,322,141.285
F,9,4262434,silence.wav,None,1000,17,4404451,336,143.285
F,9,4262434,sinestep7.wav,None,1000,17,4406451,313,145.285
F,9,4262434,sinestep5.wav,None,1000,17,4408451,315,147.285
F,9,4262434,vowelstep1.wav,None,1000,17,4410451,312,149.285
F,9,4262434,sinestep7.wav,None,1000,17,4412451,322,151.285
F,9,4262434,silence.wav,None,1000,17,4414452,325,153.285
F,9,4262434,sinestep3_catch.wav,2,167,17,4416452,330,155.285
F,9,4262434,vowelstep5.wav,None,1000,17,4418451,1166,157.285
F,9,4262434,sinestep3.wav,None,1000,17,4420451,311,159.285
F,9,4262434,vowelstep5.wav,None,1000,17,4422451,313,161.285
F,9,4262434,sinestep3.wav,None,1000,17,4424451,313,163.285
F,9,4262434,vowelstep3.wav,None,1000,17,4426451,323,165.285
F,9,4262434,vowelstep1.wav,None,1000,17,4428451,323,167.285
F,9,4262434,sinestep5.wav,None,1000,17,4430451,323,169.285
F,9,4262434,vowelstep5.wav,None,1000,17,4432452,332,171.285
F,9,4262434,vowelstep1.wav,None,1000,17,4434452,307,173.285
F,9,4262434,vowelstep1.wav,None,1000,17,4436452,309,175.285
F,9,4262434,sinestep7.wav,None,1000,17,4438452,308,177.285
F,9,4262434,vowelstep1.wav,None,1000,17,4440452,316,179.285
F,9,4262434,sinestep5.wav,None,1000,17,4442452,316,181.285
F,9,4262434,vowelstep7.wav,None,1000,17,4444451,319,183.285
F,9,4262434,sinestep1.wav,None,1000,17,4446451,328,185.285
F,9,4262434,vowelstep7.wav,None,1000,17,4448451,313,187.285
F,9,4262434,sinestep5.wav,None,1000,17,4450452,312,189.285
F,9,4262434,vowelstep5.wav,None,1000,17,4452452,310,191.285
F,9,4262434,silence.wav,None,1000,17,4454452,319,193.285
F,9,4262434,sinestep7.wav,None,1000,17,4456452,323,195.285
F,9,4262434,vowelstep5.wav,None,1000,17,4458452,314,197.285
F,9,4262434,vowelstep7.wav,None,1000,17,4460452,331,199.285
F,9,4262434,silence.wav,None,1000,17,4462452,303,201.285
F,9,4262434,vowelstep1.wav,None,1000,17,4464452,311,203.285
F,9,4262434,vowelstep7.wav,None,1000,17,4466452,312,205.285
F,9,4262434,vowelstep7.wav,None,1000,17,4468452,319,207.285
F,9,4262434,vowelstep3.wav,None,1000,17,4470452,318,209.285
F,9,4262434,vowelstep3.wav,None,1000,17,4472452,321,211.285
F,9,4262434,silence.wav,None,1000,17,4474452,327,213.285
F,9,4262434,sinestep7.wav,None,1000,17,4476452,312,215.285
F,9,4262434,sinestep1.wav,None,1000,17,4478452,309,217.285
F,9,4262434,silence.wav,None,1000,17,4480452,314,219.285
F,9,4262434,vowelstep1.wav,None,1000,17,4482452,320,221.285
F,9,4262434,sinestep5_catch.wav,2,156,17,4484453,323,223.285
F,9,4262434,sinestep1.wav,None,1000,17,4486453,1166,225.285
F,9,4262434,silence.wav,None,1000,17,4488453,333,227.285
F,9,4262434,sinestep7.wav,None,1000,17,4490453,313,229.285
F,9,4262434,sinestep7.wav,None,1000,17,4492452,313,231.285
F,9,4262434,silence.wav,None,1000,17,4494452,313,233.285
F,9,4262434,vowelstep5.wav,None,1000,17,4496452,321,235.285
F,9,4262434,sinestep7.wav,None,1000,17,4498452,323,237.285
F,9,4262434,sinestep5.wav,None,1000,17,4500452,320,239.285
F,9,4262434,sinestep5.wav,None,1000,17,4502453,324,241.285
F,9,4262434,silence.wav,None,1000,17,4504453,301,243.285
F,9,4262434,vowelstep3.wav,None,1000,17,4506453,308,245.285
F,9,4262434,vowelstep3.wav,None,1000,17,4508453,311,247.285
F,9,4262434,silence.wav,None,1000,17,4510453,311,249.285
F,9,4262434,sinestep1.wav,None,1000,17,4512453,321,251.285
F,9,4262434,sinestep1.wav,None,1000,17,4514453,320,253.285
F,9,4262434,vowelstep5.wav,None,1000,17,4516452,320,255.285
F,9,4262434,silence.wav,None,1000,17,4518452,332,257.285
F,9,4262434,sinestep5.wav,None,1000,17,4520453,312,259.285
F,9,4262434,sinestep5.wav,None,1000,17,4522453,307,261.285
F,9,4262434,sinestep5.wav,None,1000,17,4524453,308,263.285
F,9,4262434,sinestep7.wav,None,1000,17,4526453,320,265.285
F,9,4262434,sinestep7_catch.wav,2,199,17,4528453,319,267.285
F,9,4262434,sinestep7_catch.wav,2,106,17,4530453,1124,269.285
F,9,4262434,sinestep1.wav,None,1000,17,4532453,1189,271.285
F,9,4262434,vowelstep7.wav,None,1000,17,4534453,304,273.285
F,9,4262434,sinestep3.wav,None,1000,17,4536453,308,275.285
F,9,4262434,sinestep3.wav,None,1000,17,4538454,312,277.285
F,9,4262434,silence.wav,None,1000,17,4540453,318,279.285
F,9,4262434,sinestep5_catch.wav,2,284,17,4542453,319,281.285
F,9,4262434,sinestep5.wav,None,1000,17,4544453,1033,283.285
F,9,4262434,silence.wav,None,1000,17,4546453,330,285.285
F,9,4262434,vowelstep5.wav,None,1000,17,4548453,304,287.285
F,9,4262434,silence.wav,None,1000,17,4550453,310,289.285
F,9,4262434,sinestep1.wav,None,1000,17,4552453,309,291.285
F,9,4262434,sinestep3.wav,None,1000,17,4554454,315,293.285
F,9,4262434,vowelstep3.wav,None,1000,17,4556454,318,295.285
F,9,4262434,silence.wav,None,1000,17,4558454,318,297.285
F,9,4262434,sinestep5.wav,None,1000,17,4560437,329,299.285
F,9,4262434,vowelstep5.wav,None,1000,17,4562437,320,301.285
F,9,4262434,vowelstep5.wav,None,1000,17,4564453,324,303.285
F,9,4262434,vowelstep1.wav,None,1000,17,4566453,305,305.285
F,9,4262434,sinestep3.wav,None,1000,17,4568453,316,307.285
F,9,4262434,silence.wav,None,1000,17,4570453,313,309.285
F,9,4262434,sinestep3_catch.wav,2,269,17,4572454,313,311.285
F,9,4262434,vowelstep1.wav,None,1000,17,4574454,1025,313.285
F,9,4262434,vowelstep7.wav,None,1000,17,4576437,301,315.285
F,9,4262434,vowelstep7.wav,None,1000,17,4578437,324,317.285
F,9,4262434,vowelstep1.wav,None,1000,17,4580437,334,319.285