block,count_main_sequence,first_trial_timestamp,fname,response_catch_response,response_time_catch_response,subject_nr,time_stimulus,time_to_pad,timing
P,NA,114671,vowelstep1_catch.wav,2,261,1,114677,0,
P,NA,114671,sinestep7_catch.wav,2,408,1,116677,1170,
P,NA,114671,vowelstep5_catch.wav,2,601,1,118677,1036,
P,NA,114671,sinestep7.wav,None,1000,1,120677,843,
P,NA,114671,sinestep7.wav,None,1000,1,122678,443,
P,NA,114671,sinestep3.wav,None,1000,1,124678,453,
P,NA,114671,sinestep1.wav,None,1000,1,126677,455,
P,NA,114671,vowelstep7.wav,None,1000,1,128677,455,
P,NA,114671,vowelstep3.wav,None,1000,1,130677,465,
P,NA,114671,silence.wav,None,1000,1,132677,444,
P,NA,114671,sinestep1.wav,None,1000,1,134677,444,
P,NA,114671,vowelstep1.wav,None,1000,1,136677,443,
P,NA,114671,sinestep5.wav,None,1000,1,138678,453,
P,NA,114671,sinestep1.wav,None,1000,1,140678,453,
P,NA,114671,sinestep1.wav,None,1000,1,142678,453,
P,NA,114671,vowelstep1.wav,None,1000,1,144678,463,
P,NA,114671,silence.wav,None,1000,1,146678,442,
P,NA,114671,silence.wav,None,1000,1,148678,442,
P,NA,114671,silence.wav,None,1000,1,150677,442,
P,NA,114671,sinestep3_catch.wav,2,145,1,152677,452,
P,NA,114671,vowelstep7.wav,None,1000,1,154677,1307,
P,NA,114671,silence.wav,None,1000,1,156678,453,
P,NA,114671,vowelstep7.wav,None,1000,1,158678,462,
P,NA,114671,vowelstep3.wav,None,1000,1,160678,441,
P,NA,114671,silence.wav,None,1000,1,162678,442,
P,NA,114671,vowelstep1.wav,None,1000,1,164678,442,
P,NA,114671,sinestep3.wav,None,1000,1,166678,451,
P,NA,114671,vowelstep1.wav,None,1000,1,168678,451,
P,NA,114671,silence.wav,None,1000,1,170678,451,
P,NA,114671,sinestep7.wav,None,1000,1,172678,451,
P,NA,114671,sinestep5_catch.wav,2,288,1,174678,441,
P,NA,114671,silence.wav,None,1000,1,176678,1152,
P,NA,114671,sinestep7.wav,None,1000,1,178678,440,
P,NA,114671,sinestep5.wav,None,1000,1,180678,440,
P,NA,114671,sinestep3.wav,None,1000,1,182678,450,
P,NA,114671,sinestep1_catch.wav,2,239,1,184678,450,
P,NA,114671,vowelstep3_catch.wav,2,430,1,186678,1221,
P,NA,114671,vowelstep5_catch.wav,2,332,1,188678,1010,
P,NA,114671,vowelstep7.wav,None,1000,1,190679,1108,
P,NA,114671,silence.wav,None,1000,1,192679,439,
P,NA,114671,vowelstep7_catch.wav,2,285,1,194679,439,
P,NA,114671,vowelstep3.wav,None,1000,1,196679,1163,
P,NA,114671,silence.wav,None,1000,1,198678,448,
P,NA,114671,sinestep7_catch.wav,2,286,1,200678,449,
P,NA,114671,sinestep7.wav,None,1000,1,202678,1153,
P,NA,114671,vowelstep5.wav,None,1000,1,204678,439,
P,NA,114671,vowelstep3.wav,None,1000,1,206678,439,
P,NA,114671,sinestep5.wav,None,1000,1,208679,437,
P,NA,114671,sinestep5_catch.wav,2,280,1,210679,448,
P,NA,114671,sinestep3.wav,None,1000,1,212679,1168,
P,NA,114671,silence.wav,None,1000,1,214679,458,
P,NA,114671,vowelstep7.wav,None,1000,1,216679,458,
P,NA,114671,sinestep3_catch.wav,2,204,1,218679,437,
P,NA,114671,vowelstep5.wav,None,1000,1,220679,1233,
P,NA,114671,silence.wav,None,1000,1,222678,438,
P,NA,114671,sinestep1.wav,None,1000,1,224678,448,
P,NA,114671,vowelstep1.wav,None,1000,1,226679,448,
P,NA,114671,silence.wav,None,1000,1,228679,446,
P,NA,114671,silence.wav,None,1000,1,230679,426,
P,NA,114671,silence.wav,None,1000,1,232679,436,
P,NA,114671,sinestep1_catch.wav,2,138,1,234679,436,
P,NA,114671,sinestep1.wav,None,1000,1,236679,1298,
P,NA,114671,silence.wav,None,1000,1,238679,446,
P,NA,114671,vowelstep1_catch.wav,2,286,1,240679,446,
P,NA,114671,vowelstep5.wav,None,1000,1,242679,1159,
P,NA,114671,sinestep5.wav,None,1000,1,244680,456,
P,NA,114671,vowelstep3.wav,None,1000,1,246679,435,
P,NA,114671,silence.wav,None,1000,1,248679,435,
P,NA,114671,silence.wav,None,1000,1,250679,435,
P,NA,114671,sinestep7.wav,None,1000,1,252679,445,
P,NA,114671,vowelstep5.wav,None,1000,1,254679,445,
P,NA,114671,silence.wav,None,1000,1,256679,445,
P,NA,114671,vowelstep3_catch.wav,2,178,1,258679,455,
P,NA,114671,silence.wav,None,1000,1,260680,1255,
P,NA,114671,vowelstep5.wav,None,1000,1,262680,434,
P,NA,114671,vowelstep5_catch.wav,2,330,1,264680,434,
P,NA,114671,vowelstep7_catch.wav,2,239,1,266680,1113,
P,NA,114671,sinestep3.wav,None,1000,1,268680,1204,
P,NA,114671,vowelstep5.wav,None,1000,1,270680,443,
P,NA,114671,vowelstep3.wav,None,1000,1,272679,423,
P,NA,114671,silence.wav,None,1000,1,274679,434,
P,NA,114671,sinestep3.wav,None,1000,1,276679,434,
P,NA,114671,silence.wav,None,1000,1,278680,433,
P,NA,114671,sinestep7_catch.wav,2,153,1,280680,443,
P,NA,114671,sinestep5_catch.wav,2,157,1,282680,1290,
P,NA,114671,sinestep5.wav,None,1000,1,284680,1285,
P,NA,114671,sinestep5.wav,None,1000,1,286680,452,
P,NA,114671,vowelstep7.wav,None,1000,1,288680,433,
P,NA,114671,sinestep3_catch.wav,2,217,1,290680,432,
P,NA,114671,vowelstep1.wav,None,1000,1,292680,1215,
J,0,713960,sinestep5_catch.wav,2,670,1,713970,0,1.285
J,0,713960,sinestep5.wav,None,1000,1,715971,375,3.285
J,0,713960,sinestep3.wav,None,1000,1,717970,332,5.285
J,0,713960,sinestep1.wav,None,1000,1,719970,342,7.285
J,0,713960,sinestep7.wav,None,1000,1,721970,343,9.285
J,0,713960,vowelstep3.wav,None,1000,1,723970,345,11.285
J,0,713960,sinestep1.wav,None,1000,1,725970,353,13.285
J,0,713960,vowelstep5.wav,None,1000,1,727970,335,15.285
J,0,713960,vowelstep3.wav,None,1000,1,729970,334,17.285
J,0,713960,vowelstep1.wav,None,1000,1,731970,335,19.285
J,0,713960,vowelstep1.wav,None,1000,1,733971,345,21.285
J,0,713960,sinestep3.wav,None,1000,1,735971,340,23.285
J,0,713960,silence.wav,None,1000,1,737971,344,25.285
J,0,713960,vowelstep7.wav,None,1000,1,739970,354,27.285
J,0,713960,sinestep3.wav,None,1000,1,741970,330,29.285
J,0,713960,sinestep7.wav,None,1000,1,743970,324,31.285
J,0,713960,silence.wav,None,1000,1,745970,332,33.285
J,0,713960,vowelstep5.wav,None,1000,1,747970,344,35.285
J,0,713960,sinestep1.wav,None,1000,1,749970,340,37.285
J,0,713960,sinestep1_catch.wav,2,228,1,751971,340,39.285
J,0,713960,sinestep7.wav,None,1000,1,753971,1123,41.285
J,0,713960,vowelstep7.wav,None,1000,1,755971,329,43.285
J,0,713960,sinestep3_catch.wav,2,287,1,757971,334,45.285
J,0,713960,vowelstep3.wav,None,1000,1,759971,1042,47.285
J,0,713960,vowelstep7.wav,None,1000,1,761971,333,49.285
J,0,713960,sinestep1.wav,None,1000,1,763971,343,51.285
J,0,713960,vowelstep3.wav,None,1000,1,765970,339,53.285
J,0,713960,vowelstep1.wav,None,1000,1,767971,352,55.285
J,0,713960,sinestep5.wav,None,1000,1,769971,320,57.285
J,0,713960,sinestep5_catch.wav,2,166,1,771971,333,59.285
J,0,713960,sinestep5.wav,None,1000,1,773971,1163,61.285
J,0,713960,vowelstep7.wav,None,1000,1,775971,342,63.285
J,0,713960,sinestep7.wav,None,1000,1,777971,342,65.285
J,0,713960,vowelstep1.wav,None,1000,1,779971,342,67.285
J,0,713960,sinestep7_catch.wav,2,194,1,781971,348,69.285
J,0,713960,silence.wav,None,1000,1,783971,1138,71.285
J,0,713960,vowelstep5.wav,None,1000,1,785972,327,73.285
J,0,713960,sinestep5.wav,None,1000,1,787972,332,75.285
J,0,713960,sinestep5.wav,None,1000,1,789971,326,77.285
J,0,713960,vowelstep3.wav,None,1000,1,791971,339,79.285
J,0,713960,vowelstep5.wav,None,1000,1,793971,337,81.285
J,0,713960,sinestep3.wav,None,1000,1,795971,338,83.285
J,0,713960,silence.wav,None,1000,1,797971,314,85.285
J,0,713960,vowelstep3.wav,None,1000,1,799971,328,87.285
J,0,713960,vowelstep7.wav,None,1000,1,801971,326,89.285
J,0,713960,silence.wav,None,1000,1,803972,341,91.285
J,0,713960,sinestep3.wav,None,1000,1,805972,338,93.285
J,0,713960,silence.wav,None,1000,1,807972,340,95.285
J,0,713960,sinestep1.wav,None,1000,1,809972,340,97.285
J,0,713960,sinestep5_catch.wav,2,162,1,811972,330,99.285
J,0,713960,sinestep7.wav,None,1000,1,813971,1165,101.285
J,0,713960,sinestep5.wav,None,1000,1,815971,329,103.285
J,0,713960,sinestep5.wav,None,1000,1,817971,324,105.285
J,0,713960,sinestep3.wav,None,1000,1,819971,340,107.285
J,0,713960,sinestep3_catch.wav,2,154,1,821972,332,109.285
J,0,713960,sinestep3.wav,None,1000,1,823972,1181,111.285
J,0,713960,silence.wav,None,1000,1,825972,315,113.285
J,0,713960,sinestep1.wav,None,1000,1,827972,326,115.285
J,0,713960,silence.wav,None,1000,1,829972,323,117.285
J,0,713960,vowelstep3.wav,None,1000,1,831972,324,119.285
J,0,713960,vowelstep5.wav,None,1000,1,833972,336,121.285
J,0,713960,vowelstep7.wav,None,1000,1,835972,337,123.285
J,0,713960,silence.wav,None,1000,1,837972,334,125.285
J,0,713960,sinestep1.wav,None,1000,1,839972,315,127.285
J,0,713960,sinestep3.wav,None,1000,1,841972,324,129.285
J,0,713960,sinestep7.wav,None,1000,1,843972,325,131.285
J,0,713960,silence.wav,None,1000,1,845972,321,133.285
J,0,713960,sinestep1.wav,None,1000,1,847972,334,135.285
J,0,713960,vowelstep7.wav,None,1000,1,849972,333,137.285
J,0,713960,sinestep5.wav,None,1000,1,851972,335,139.285
J,0,713960,vowelstep1.wav,None,1000,1,853972,324,141.285
J,0,713960,vowelstep7.wav,None,1000,1,855973,325,143.285
J,0,713960,vowelstep3.wav,None,1000,1,857973,323,145.285
J,0,713960,vowelstep3.wav,None,1000,1,859973,325,147.285
J,0,713960,sinestep7.wav,None,1000,1,861972,323,149.285
J,0,713960,vowelstep5.wav,None,1000,1,863972,330,151.285
J,0,713960,silence.wav,None,1000,1,865972,345,153.285
J,0,713960,sinestep1.wav,None,1000,1,867972,338,155.285
J,0,713960,sinestep3.wav,None,1000,1,869972,343,157.285
J,0,713960,silence.wav,None,1000,1,871972,342,159.285
J,0,713960,sinestep1.wav,None,1000,1,873973,353,161.285
J,0,713960,vowelstep7.wav,None,1000,1,875973,333,163.285
J,0,713960,vowelstep7.wav,None,1000,1,877973,329,165.285
J,0,713960,sinestep1_catch.wav,2,203,1,879973,333,167.285
J,0,713960,vowelstep1_catch.wav,2,242,1,881973,1134,169.285
J,0,713960,vowelstep1.wav,None,1000,1,883973,1099,171.285
J,0,713960,vowelstep7.wav,None,1000,1,885972,322,173.285
J,0,713960,sinestep1.wav,None,1000,1,887972,354,175.285
J,0,713960,vowelstep5.wav,None,1000,1,889972,331,177.285
J,0,713960,vowelstep5.wav,None,1000,1,891973,328,179.285
J,0,713960,sinestep5.wav,None,1000,1,893973,330,181.285
J,0,713960,sinestep7.wav,None,1000,1,895973,341,183.285
J,0,713960,sinestep7.wav,None,1000,1,897973,341,185.285
J,0,713960,sinestep1.wav,None,1000,1,899973,341,187.285
J,0,713960,vowelstep1.wav,None,1000,1,901973,350,189.285
J,0,713960,silence.wav,None,1000,1,903973,331,191.285
J,0,713960,sinestep5.wav,None,1000,1,905973,331,193.285
J,0,713960,vowelstep5.wav,None,1000,1,907974,330,195.285
J,0,713960,vowelstep1.wav,None,1000,1,909973,340,197.285
J,0,713960,vowelstep1.wav,None,1000,1,911973,341,199.285
J,0,713960,sinestep3.wav,None,1000,1,913973,340,201.285
J,0,713960,sinestep3.wav,None,1000,1,915973,340,203.285
J,0,713960,silence.wav,None,1000,1,917973,323,205.285
J,0,713960,sinestep5.wav,None,1000,1,919973,326,207.285
J,0,713960,vowelstep1.wav,None,1000,1,921973,325,209.285
J,0,713960,vowelstep5.wav,None,1000,1,923973,323,211.285
J,0,713960,vowelstep3.wav,None,1000,1,925974,285,213.285
J,0,713960,vowelstep3.wav,None,1000,1,927974,333,215.285
J,0,713960,silence.wav,None,1000,1,929974,335,217.285
J,0,713960,sinestep1.wav,None,1000,1,931974,317,219.285
J,0,713960,vowelstep3.wav,None,1000,1,933974,323,221.285
J,0,713960,sinestep7.wav,None,1000,1,935973,327,223.285
J,0,713960,vowelstep7.wav,None,1000,1,937973,324,225.285
J,0,713960,silence.wav,None,1000,1,939973,335,227.285
J,0,713960,vowelstep5.wav,None,1000,1,941973,336,229.285
J,0,713960,silence.wav,None,1000,1,943974,335,231.285
J,0,713960,sinestep3.wav,None,1000,1,945974,324,233.285
J,0,713960,vowelstep5.wav,None,1000,1,947974,324,235.285
J,0,713960,vowelstep3.wav,None,1000,1,949974,319,237.285
J,0,713960,vowelstep5.wav,None,1000,1,951974,322,239.285
J,0,713960,vowelstep7.wav,None,1000,1,953974,330,241.285
J,0,713960,vowelstep1.wav,None,1000,1,955974,333,243.285
J,0,713960,sinestep7.wav,None,1000,1,957974,333,245.285
J,0,713960,sinestep7.wav,None,1000,1,959974,342,247.285
J,0,713960,silence.wav,None,1000,1,961974,321,249.285
J,0,713960,vowelstep1.wav,None,1000,1,963974,319,251.285
J,0,713960,vowelstep3_catch.wav,2,232,1,965974,331,253.285
J,0,713960,vowelstep1.wav,None,1000,1,967974,1100,255.285
J,0,713960,vowelstep5_catch.wav,2,124,1,969974,331,257.285
J,0,713960,silence.wav,None,1000,1,971974,1207,259.285
J,0,713960,sinestep5.wav,None,1000,1,973974,309,261.285
J,0,713960,vowelstep1.wav,None,1000,1,975974,322,263.285
J,0,713960,sinestep5.wav,None,1000,1,977975,320,265.285
J,0,713960,vowelstep3.wav,None,1000,1,979975,320,267.285
J,0,713960,sinestep5.wav,None,1000,1,981975,330,269.285
J,0,713960,sinestep7.wav,None,1000,1,983974,332,271.285
J,0,713960,silence.wav,None,1000,1,985974,326,273.285
J,0,713960,vowelstep7_catch.wav,2,183,1,987974,341,275.285
J,0,713960,sinestep3.wav,None,1000,1,989974,1134,277.285
J,0,713960,vowelstep5.wav,None,1000,1,991974,323,279.285
J,0,713960,silence.wav,None,1000,1,993974,324,281.285
J,0,713960,silence.wav,None,1000,1,995975,333,283.285
J,0,713960,silence.wav,None,1000,1,997975,333,285.285
J,0,713960,vowelstep7.wav,None,1000,1,999975,330,287.285
J,0,713960,sinestep3.wav,None,1000,1,1001975,308,289.285
J,0,713960,vowelstep5_catch.wav,2,143,1,1003975,323,291.285
J,0,713960,silence.wav,None,1000,1,1005975,1172,293.285
J,0,713960,sinestep7.wav,None,1000,1,1007974,323,295.285
J,0,713960,vowelstep1.wav,None,1000,1,1009974,331,297.285
J,0,713960,silence.wav,None,1000,1,1011974,331,299.285
J,0,713960,sinestep1.wav,None,1000,1,1013975,331,301.285
J,0,713960,sinestep5.wav,None,1000,1,1015975,329,303.285
J,0,713960,vowelstep5.wav,None,1000,1,1017975,321,305.285
J,0,713960,vowelstep3.wav,None,1000,1,1019975,317,307.285
J,0,713960,sinestep7.wav,None,1000,1,1021975,319,309.285
J,0,713960,vowelstep7.wav,None,1000,1,1023975,320,311.285
J,0,713960,vowelstep3_catch.wav,2,210,1,1025975,330,313.285
J,0,713960,vowelstep1_catch.wav,2,140,1,1027975,1120,315.285
J,0,713960,sinestep3.wav,None,1000,1,1029976,1201,317.285
J,0,713960,sinestep1.wav,None,1000,1,1031975,314,319.285
B,1,1105531,vowelstep5.wav,None,1000,1,1105543,0,1.285
B,1,1105531,silence.wav,None,1000,1,1107543,326,3.285
B,1,1105531,sinestep7.wav,None,1000,1,1109543,335,5.285
B,1,1105531,vowelstep1_catch.wav,2,256,1,1111543,337,7.285
B,1,1105531,vowelstep7.wav,None,1000,1,1113543,1080,9.285
B,1,1105531,vowelstep3.wav,None,1000,1,1115543,346,11.285
B,1,1105531,vowelstep7.wav,None,1000,1,1117544,326,13.285
B,1,1105531,vowelstep5.wav,None,1000,1,1119544,325,15.285
B,1,1105531,vowelstep7.wav,None,1000,1,1121543,321,17.285
B,1,1105531,vowelstep3.wav,None,1000,1,1123543,337,19.285
B,1,1105531,silence.wav,None,1000,1,1125543,332,21.285
B,1,1105531,silence.wav,None,1000,1,1127543,336,23.285
B,1,1105531,sinestep5.wav,None,1000,1,1129543,315,25.285
B,1,1105531,sinestep1.wav,None,1000,1,1131543,318,27.285
B,1,1105531,vowelstep7.wav,None,1000,1,1133543,320,29.285
B,1,1105531,sinestep5.wav,None,1000,1,1135544,323,31.285
B,1,1105531,vowelstep1.wav,None,1000,1,1137544,335,33.285
B,1,1105531,vowelstep7.wav,None,1000,1,1139544,336,35.285
B,1,1105531,vowelstep3.wav,None,1000,1,1141544,332,37.285
B,1,1105531,sinestep5.wav,None,1000,1,1143544,315,39.285
B,1,1105531,vowelstep1.wav,None,1000,1,1145543,325,41.285
B,1,1105531,sinestep3.wav,None,1000,1,1147543,325,43.285
B,1,1105531,vowelstep5.wav,None,1000,1,1149543,326,45.285
B,1,1105531,vowelstep7.wav,None,1000,1,1151543,334,47.285
B,1,1105531,vowelstep3.wav,None,1000,1,1153544,335,49.285
B,1,1105531,sinestep7.wav,None,1000,1,1155544,334,51.285
B,1,1105531,sinestep3.wav,None,1000,1,1157544,311,53.285
B,1,1105531,sinestep1.wav,None,1000,1,1159544,323,55.285
B,1,1105531,sinestep1.wav,None,1000,1,1161544,323,57.285
B,1,1105531,sinestep5.wav,None,1000,1,1163544,323,59.285
B,1,1105531,vowelstep5.wav,None,1000,1,1165544,335,61.285
B,1,1105531,vowelstep3_catch.wav,2,45,1,1167544,333,63.285
B,1,1105531,vowelstep7.wav,None,1000,1,1169543,1289,65.285
B,1,1105531,sinestep1.wav,None,1000,1,1171544,314,67.285
B,1,1105531,vowelstep5.wav,None,1000,1,1173544,318,69.285
B,1,1105531,vowelstep5_catch.wav,2,153,1,1175544,324,71.285
B,1,1105531,vowelstep7.wav,None,1000,1,1177544,1170,73.285
B,1,1105531,sinestep3.wav,None,1000,1,1179544,323,75.285
B,1,1105531,vowelstep7_catch.wav,2,128,1,1181544,333,77.285
B,1,1105531,sinestep5.wav,None,1000,1,1183544,1205,79.285
B,1,1105531,vowelstep5.wav,None,1000,1,1185544,344,81.285
B,1,1105531,silence.wav,None,1000,1,1187545,319,83.285
B,1,1105531,silence.wav,None,1000,1,1189545,321,85.285
B,1,1105531,vowelstep3.wav,None,1000,1,1191545,321,87.285
B,1,1105531,silence.wav,None,1000,1,1193544,321,89.285
B,1,1105531,sinestep1.wav,None,1000,1,1195544,332,91.285
B,1,1105531,sinestep1.wav,None,1000,1,1197544,332,93.285
B,1,1105531,sinestep5.wav,None,1000,1,1199544,341,95.285
B,1,1105531,vowelstep7.wav,None,1000,1,1201544,311,97.285
B,1,1105531,sinestep5.wav,None,1000,1,1203544,321,99.285
B,1,1105531,sinestep5.wav,None,1000,1,1205545,318,101.285
B,1,1105531,silence.wav,None,1000,1,1207545,329,103.285
B,1,1105531,vowelstep1.wav,None,1000,1,1209545,330,105.285
B,1,1105531,silence.wav,None,1000,1,1211545,329,107.285
B,1,1105531,sinestep1.wav,None,1000,1,1213545,330,109.285
B,1,1105531,vowelstep7.wav,None,1000,1,1215545,319,111.285
B,1,1105531,silence.wav,None,1000,1,1217544,321,113.285
B,1,1105531,sinestep1.wav,None,1000,1,1219544,320,115.285
B,1,1105531,vowelstep3.wav,None,1000,1,1221544,317,117.285
B,1,1105531,vowelstep5.wav,None,1000,1,1223545,329,119.285
B,1,1105531,silence.wav,None,1000,1,1225545,329,121.285
B,1,1105531,sinestep3.wav,None,1000,1,1227545,338,123.285
B,1,1105531,sinestep5.wav,None,1000,1,1229545,308,125.285
B,1,1105531,silence.wav,None,1000,1,1231545,320,127.285
B,1,1105531,vowelstep5.wav,None,1000,1,1233545,318,129.285
B,1,1105531,sinestep3.wav,None,1000,1,1235545,326,131.285
B,1,1105531,sinestep5.wav,None,1000,1,1237545,325,133.285
B,1,1105531,sinestep5.wav,None,1000,1,1239545,328,135.285
B,1,1105531,sinestep7.wav,None,1000,1,1241546,328,137.285
B,1,1105531,sinestep7.wav,None,1000,1,1243545,337,139.285
B,1,1105531,vowelstep5.wav,None,1000,1,1245545,320,141.285
B,1,1105531,sinestep1.wav,None,1000,1,1247545,317,143.285
B,1,1105531,vowelstep7.wav,None,1000,1,1249545,318,145.285
B,1,1105531,sinestep7.wav,None,1000,1,1251545,329,147.285
B,1,1105531,vowelstep5.wav,None,1000,1,1253545,324,149.285
B,1,1105531,vowelstep1.wav,None,1000,1,1255545,327,151.285
B,1,1105531,sinestep3.wav,None,1000,1,1257546,336,153.285
B,1,1105531,silence.wav,None,1000,1,1259546,316,155.285
B,1,1105531,silence.wav,None,1000,1,1261546,317,157.285
B,1,1105531,sinestep7_catch.wav,2,150,1,1263546,316,159.285
B,1,1105531,vowelstep5.wav,None,1000,1,1265545,1176,161.285
B,1,1105531,sinestep7.wav,None,1000,1,1267545,323,163.285
B,1,1105531,vowelstep5.wav,None,1000,1,1269545,325,165.285
B,1,1105531,vowelstep3.wav,None,1000,1,1271545,335,167.285
B,1,1105531,silence.wav,None,1000,1,1273545,336,169.285
B,1,1105531,sinestep3.wav,None,1000,1,1275546,336,171.285
B,1,1105531,sinestep7_catch.wav,2,191,1,1277546,315,173.285
B,1,1105531,sinestep3.wav,None,1000,1,1279546,1135,175.285
B,1,1105531,sinestep5_catch.wav,2,131,1,1281546,325,177.285
B,1,1105531,vowelstep5.wav,None,1000,1,1283546,1194,179.285
B,1,1105531,silence.wav,None,1000,1,1285546,332,181.285
B,1,1105531,sinestep7.wav,None,1000,1,1287546,335,183.285
B,1,1105531,silence.wav,None,1000,1,1289546,336,185.285
B,1,1105531,sinestep3.wav,None,1000,1,1291545,345,187.285
B,1,1105531,silence.wav,None,1000,1,1293546,326,189.285
B,1,1105531,vowelstep7.wav,None,1000,1,1295546,325,191.285
B,1,1105531,vowelstep3.wav,None,1000,1,1297546,325,193.285
B,1,1105531,vowelstep3.wav,None,1000,1,1299546,335,195.285
B,1,1105531,sinestep7.wav,None,1000,1,1301546,331,197.285
B,1,1105531,sinestep7.wav,None,1000,1,1303546,334,199.285
B,1,1105531,sinestep3.wav,None,1000,1,1305546,335,201.285
B,1,1105531,sinestep3_catch.wav,2,246,1,1307546,325,203.285
B,1,1105531,sinestep1.wav,None,1000,1,1309546,1079,205.285
B,1,1105531,sinestep1.wav,None,1000,1,1311547,323,207.285
B,1,1105531,sinestep3.wav,None,1000,1,1313547,325,209.285
B,1,1105531,silence.wav,None,1000,1,1315546,336,211.285
B,1,1105531,silence.wav,None,1000,1,1317546,331,213.285
B,1,1105531,sinestep5_catch.wav,2,252,1,1319546,344,215.285
B,1,1105531,sinestep7.wav,None,1000,1,1321546,1062,217.285
B,1,1105531,sinestep7.wav,None,1000,1,1323546,324,219.285
B,1,1105531,vowelstep3.wav,None,1000,1,1325546,324,221.285
B,1,1105531,sinestep1_catch.wav,2,250,1,1327547,332,223.285
B,1,1105531,vowelstep5.wav,None,1000,1,1329547,1078,225.285
B,1,1105531,sinestep1.wav,None,1000,1,1331547,332,227.285
B,1,1105531,vowelstep1.wav,None,1000,1,1333547,332,229.285
B,1,1105531,vowelstep1.wav,None,1000,1,1335547,313,231.285
B,1,1105531,sinestep5.wav,None,1000,1,1337547,323,233.285
B,1,1105531,silence.wav,None,1000,1,1339546,324,235.285
B,1,1105531,silence.wav,None,1000,1,1341546,332,237.285
B,1,1105531,vowelstep1.wav,None,1000,1,1343546,333,239.285
B,1,1105531,vowelstep1.wav,None,1000,1,1345547,333,241.285
B,1,1105531,silence.wav,None,1000,1,1347547,332,243.285
B,1,1105531,vowelstep1_catch.wav,2,321,1,1349547,318,245.285
B,1,1105531,sinestep7.wav,None,1000,1,1351547,1000,247.285
B,1,1105531,sinestep1.wav,None,1000,1,1353547,321,249.285
B,1,1105531,vowelstep1.wav,None,1000,1,1355547,321,251.285
B,1,1105531,vowelstep3.wav,None,1000,1,1357547,331,253.285
B,1,1105531,sinestep3.wav,None,1000,1,1359547,333,255.285
B,1,1105531,silence.wav,None,1000,1,1361547,327,257.285
B,1,1105531,vowelstep3.wav,None,1000,1,1363547,312,259.285
B,1,1105531,silence.wav,None,1000,1,1365547,316,261.285
B,1,1105531,vowelstep3.wav,None,1000,1,1367547,320,263.285
B,1,1105531,sinestep5.wav,None,1000,1,1369547,321,265.285
B,1,1105531,vowelstep3_catch.wav,2,248,1,1371547,332,267.285
B,1,1105531,sinestep3.wav,None,1000,1,1373547,1082,269.285
B,1,1105531,sinestep1.wav,None,1000,1,1375547,330,271.285
B,1,1105531,vowelstep3.wav,None,1000,1,1377547,321,273.285
B,1,1105531,vowelstep1.wav,None,1000,1,1379548,320,275.285
B,1,1105531,vowelstep5_catch.wav,2,170,1,1381548,316,277.285
B,1,1105531,vowelstep1.wav,None,1000,1,1383548,1149,279.285
B,1,1105531,vowelstep5.wav,None,1000,1,1385548,319,281.285
B,1,1105531,sinestep7.wav,None,1000,1,1387547,329,283.285
B,1,1105531,vowelstep7.wav,None,1000,1,1389548,339,285.285
B,1,1105531,vowelstep1_catch.wav,2,114,1,1391547,337,287.285
B,1,1105531,sinestep1.wav,None,1000,1,1393547,1202,289.285
B,1,1105531,vowelstep1.wav,None,1000,1,1395547,322,291.285
B,1,1105531,sinestep5.wav,None,1000,1,1397548,315,293.285
B,1,1105531,vowelstep7.wav,None,1000,1,1399548,330,295.285
B,1,1105531,sinestep7.wav,None,1000,1,1401548,330,297.285
B,1,1105531,vowelstep7_catch.wav,2,107,1,1403548,330,299.285
B,1,1105531,sinestep3.wav,None,1000,1,1405548,1233,301.285
B,1,1105531,vowelstep3.wav,None,1000,1,1407548,320,303.285
B,1,1105531,sinestep5.wav,None,1000,1,1409548,317,305.285
B,1,1105531,vowelstep1.wav,None,1000,1,1411547,321,307.285
B,1,1105531,vowelstep7.wav,None,1000,1,1413547,326,309.285
B,1,1105531,vowelstep1.wav,None,1000,1,1415548,330,311.285
B,1,1105531,sinestep7.wav,None,1000,1,1417548,329,313.285
B,1,1105531,sinestep3.wav,None,1000,1,1419548,339,315.285
B,1,1105531,silence.wav,None,1000,1,1421548,340,317.285
B,1,1105531,vowelstep1.wav,None,1000,1,1423548,320,319.285
A,2,1481698,sinestep5_catch.wav,2,463,1,1481715,0,1.285
A,2,1481698,vowelstep1.wav,None,1000,1,1483715,857,3.285
A,2,1481698,vowelstep3.wav,None,1000,1,1485716,331,5.285
A,2,1481698,sinestep1.wav,None,1000,1,1487716,332,7.285
A,2,1481698,sinestep5_catch.wav,2,224,1,1489716,333,9.285
A,2,1481698,sinestep7.wav,None,1000,1,1491716,1108,11.285
A,2,1481698,sinestep3.wav,None,1000,1,1493716,312,13.285
A,2,1481698,silence.wav,None,1000,1,1495716,321,15.285
A,2,1481698,vowelstep7.wav,None,1000,1,1497716,322,17.285
A,2,1481698,sinestep7.wav,None,1000,1,1499715,335,19.285
A,2,1481698,vowelstep5_catch.wav,2,211,1,1501715,331,21.285
A,2,1481698,sinestep7.wav,None,1000,1,1503716,1120,23.285
A,2,1481698,sinestep3.wav,None,1000,1,1505716,332,25.285
A,2,1481698,silence.wav,None,1000,1,1507716,321,27.285
A,2,1481698,sinestep3.wav,None,1000,1,1509716,321,29.285
A,2,1481698,sinestep5_catch.wav,2,196,1,1511716,322,31.285
A,2,1481698,sinestep1.wav,None,1000,1,1513716,1121,33.285
A,2,1481698,sinestep1.wav,None,1000,1,1515716,333,35.285
A,2,1481698,sinestep5.wav,None,1000,1,1517716,327,37.285
A,2,1481698,vowelstep3.wav,None,1000,1,1519717,332,39.285
A,2,1481698,vowelstep5.wav,None,1000,1,1521717,310,41.285
A,2,1481698,vowelstep3.wav,None,1000,1,1523716,321,43.285
A,2,1481698,vowelstep1.wav,None,1000,1,1525716,320,45.285
A,2,1481698,vowelstep3.wav,None,1000,1,1527716,320,47.285
A,2,1481698,sinestep3.wav,None,1000,1,1529716,331,49.285
A,2,1481698,sinestep7.wav,None,1000,1,1531716,331,51.285
A,2,1481698,sinestep5.wav,None,1000,1,1533716,327,53.285
A,2,1481698,vowelstep7_catch.wav,2,227,1,1535716,310,55.285
A,2,1481698,silence.wav,None,1000,1,1537717,1092,57.285
A,2,1481698,vowelstep3.wav,None,1000,1,1539717,319,59.285
A,2,1481698,vowelstep1.wav,None,1000,1,1541717,320,61.285
A,2,1481698,silence.wav,None,1000,1,1543717,329,63.285
A,2,1481698,sinestep3.wav,None,1000,1,1545717,326,65.285
A,2,1481698,sinestep7.wav,None,1000,1,1547716,330,67.285
A,2,1481698,sinestep5.wav,None,1000,1,1549716,334,69.285
A,2,1481698,sinestep5.wav,None,1000,1,1551716,318,71.285
A,2,1481698,sinestep7.wav,None,1000,1,1553716,318,73.285
A,2,1481698,sinestep1.wav,None,1000,1,1555701,318,75.285
A,2,1481698,sinestep5.wav,None,1000,1,1557717,348,77.285
A,2,1481698,vowelstep1.wav,None,1000,1,1559717,326,79.285
A,2,1481698,sinestep1.wav,None,1000,1,1561717,329,81.285
A,2,1481698,vowelstep5.wav,None,1000,1,1563717,308,83.285
A,2,1481698,sinestep1.wav,None,1000,1,1565717,305,85.285
A,2,1481698,silence.wav,None,1000,1,1567717,317,87.285
A,2,1481698,vowelstep1.wav,None,1000,1,1569717,317,89.285
A,2,1481698,sinestep3.wav,None,1000,1,1571717,328,91.285
A,2,1481698,vowelstep5.wav,None,1000,1,1573701,327,93.285
A,2,1481698,vowelstep5.wav,None,1000,1,1575717,357,95.285
A,2,1481698,vowelstep5.wav,None,1000,1,1577717,337,97.285
A,2,1481698,vowelstep7.wav,None,1000,1,1579717,318,99.285
A,2,1481698,vowelstep3.wav,None,1000,1,1581717,314,101.285
A,2,1481698,sinestep1.wav,None,1000,1,1583717,315,103.285
A,2,1481698,sinestep1.wav,None,1000,1,1585717,327,105.285
A,2,1481698,vowelstep7.wav,None,1000,1,1587717,325,107.285
A,2,1481698,vowelstep1.wav,None,1000,1,1589701,326,109.285
A,2,1481698,vowelstep7.wav,None,1000,1,1591701,335,111.285
A,2,1481698,silence.wav,None,1000,1,1593718,336,113.285
A,2,1481698,sinestep1.wav,None,1000,1,1595718,313,115.285
A,2,1481698,vowelstep1.wav,None,1000,1,1597717,315,117.285
A,2,1481698,silence.wav,None,1000,1,1599717,316,119.285
A,2,1481698,vowelstep1.wav,None,1000,1,1601717,326,121.285
A,2,1481698,vowelstep3.wav,None,1000,1,1603701,327,123.285
A,2,1481698,vowelstep1.wav,None,1000,1,1605717,351,125.285
A,2,1481698,sinestep7.wav,None,1000,1,1607701,307,127.285
A,2,1481698,silence.wav,None,1000,1,1609701,334,129.285
A,2,1481698,vowelstep1.wav,None,1000,1,1611701,335,131.285
A,2,1481698,silence.wav,None,1000,1,1613718,340,133.285
A,2,1481698,sinestep7.wav,None,1000,1,1615718,323,135.285
A,2,1481698,vowelstep5.wav,None,1000,1,1617718,324,137.285
A,2,1481698,sinestep7.wav,None,1000,1,1619701,323,139.285
A,2,1481698,sinestep3.wav,None,1000,1,1621701,335,141.285
A,2,1481698,vowelstep5.wav,None,1000,1,1623717,332,143.285
A,2,1481698,silence.wav,None,1000,1,1625702,313,145.285
A,2,1481698,sinestep3.wav,None,1000,1,1627702,345,147.285
A,2,1481698,sinestep5.wav,None,1000,1,1629701,339,149.285
A,2,1481698,sinestep3.wav,None,1000,1,1631718,342,151.285
A,2,1481698,vowelstep3.wav,None,1000,1,1633718,322,153.285
A,2,1481698,sinestep3.wav,None,1000,1,1635701,302,155.285
A,2,1481698,vowelstep7_catch.wav,2,184,1,1637701,334,157.285
A,2,1481698,vowelstep7.wav,None,1000,1,1639701,1148,159.285
A,2,1481698,vowelstep5.wav,None,1000,1,1641718,343,161.285
A,2,1481698,sinestep5.wav,None,1000,1,1643702,322,163.285
A,2,1481698,silence.wav,None,1000,1,1645702,338,165.285
A,2,1481698,sinestep5.wav,None,1000,1,1647702,321,167.285
A,2,1481698,vowelstep5_catch.wav,2,176,1,1649718,331,169.285
A,2,1481698,silence.wav,None,1000,1,1651702,1134,171.285
A,2,1481698,sinestep7.wav,None,1000,1,1653701,332,173.285
A,2,1481698,sinestep5.wav,None,1000,1,1655701,341,175.285
A,2,1481698,sinestep7.wav,None,1000,1,1657701,342,177.285
A,2,1481698,vowelstep3.wav,None,1000,1,1659702,340,179.285
A,2,1481698,sinestep5.wav,None,1000,1,1661702,347,181.285
A,2,1481698,vowelstep1.wav,None,1000,1,1663702,330,183.285
A,2,1481698,vowelstep5.wav,None,1000,1,1665702,330,185.285
A,2,1481698,sinestep5.wav,None,1000,1,1667702,332,187.285
A,2,1481698,vowelstep1.wav,None,1000,1,1669702,341,189.285
A,2,1481698,silence.wav,None,1000,1,1671702,340,191.285
A,2,1481698,sinestep1.wav,None,1000,1,1673702,341,193.285
A,2,1481698,vowelstep5.wav,None,1000,1,1675702,351,195.285
A,2,1481698,sinestep3.wav,None,1000,1,1677702,326,197.285
A,2,1481698,silence.wav,None,1000,1,1679702,328,199.285
A,2,1481698,vowelstep3.wav,None,1000,1,1681702,328,201.285
A,2,1481698,vowelstep3_catch.wav,2,255,1,1683702,329,203.285
A,2,1481698,vowelstep5.wav,None,1000,1,1685702,1076,205.285
A,2,1481698,vowelstep1_catch.wav,2,72,1,1687702,335,207.285
A,2,1481698,silence.wav,None,1000,1,1689702,1276,209.285
A,2,1481698,sinestep3.wav,None,1000,1,1691702,302,211.285
A,2,1481698,vowelstep5.wav,None,1000,1,1693702,330,213.285
A,2,1481698,silence.wav,None,1000,1,1695703,325,215.285
A,2,1481698,sinestep5.wav,None,1000,1,1697703,280,217.285
A,2,1481698,vowelstep7.wav,None,1000,1,1699703,335,219.285
A,2,1481698,silence.wav,None,1000,1,1701702,339,221.285
A,2,1481698,vowelstep3.wav,None,1000,1,1703702,350,223.285
A,2,1481698,sinestep7.wav,None,1000,1,1705702,348,225.285
A,2,1481698,silence.wav,None,1000,1,1707702,329,227.285
A,2,1481698,vowelstep3.wav,None,1000,1,1709702,325,229.285
A,2,1481698,vowelstep5.wav,None,1000,1,1711702,328,231.285
A,2,1481698,vowelstep7.wav,None,1000,1,1713703,336,233.285
A,2,1481698,vowelstep3.wav,None,1000,1,1715703,338,235.285
A,2,1481698,vowelstep5.wav,None,1000,1,1717703,348,237.285
A,2,1481698,sinestep1_catch.wav,2,221,1,1719703,319,239.285
A,2,1481698,sinestep3.wav,None,1000,1,1721703,1107,241.285
A,2,1481698,sinestep1.wav,None,1000,1,1723703,328,243.285
A,2,1481698,sinestep3_catch.wav,2,130,1,1725702,336,245.285
A,2,1481698,sinestep7.wav,None,1000,1,1727702,1208,247.285
A,2,1481698,vowelstep1.wav,None,1000,1,1729703,339,249.285
A,2,1481698,sinestep3.wav,None,1000,1,1731703,344,251.285
A,2,1481698,vowelstep7.wav,None,1000,1,1733703,348,253.285
A,2,1481698,silence.wav,None,1000,1,1735703,328,255.285
A,2,1481698,sinestep1.wav,None,1000,1,1737703,329,257.285
A,2,1481698,silence.wav,None,1000,1,1739703,335,259.285
A,2,1481698,vowelstep5.wav,None,1000,1,1741703,337,261.285
A,2,1481698,sinestep5_catch.wav,2,171,1,1743703,338,263.285
A,2,1481698,vowelstep7.wav,None,1000,1,1745703,1177,265.285
A,2,1481698,sinestep3.wav,None,1000,1,1747704,349,267.285
A,2,1481698,vowelstep1.wav,None,1000,1,1749703,326,269.285
A,2,1481698,vowelstep3.wav,None,1000,1,1751703,347,271.285
A,2,1481698,sinestep7_catch.wav,2,108,1,1753703,327,273.285
A,2,1481698,silence.wav,None,1000,1,1755703,1229,275.285
A,2,1481698,vowelstep7.wav,None,1000,1,1757703,334,277.285
A,2,1481698,sinestep7.wav,None,1000,1,1759703,337,279.285
A,2,1481698,sinestep1.wav,None,1000,1,1761703,347,281.285
A,2,1481698,vowelstep7.wav,None,1000,1,1763703,348,283.285
A,2,1481698,sinestep5.wav,None,1000,1,1765704,343,285.285
A,2,1481698,sinestep5.wav,None,1000,1,1767704,335,287.285
A,2,1481698,sinestep7_catch.wav,2,156,1,1769704,334,289.285
A,2,1481698,sinestep5.wav,None,1000,1,1771704,1178,291.285
A,2,1481698,silence.wav,None,1000,1,1773704,332,293.285
A,2,1481698,vowelstep3.wav,None,1000,1,1775703,345,295.285
A,2,1481698,silence.wav,None,1000,1,1777703,344,297.285
A,2,1481698,vowelstep1.wav,None,1000,1,1779703,344,299.285
A,2,1481698,sinestep1.wav,None,1000,1,1781704,326,301.285
A,2,1481698,sinestep7.wav,None,1000,1,1783704,333,303.285
A,2,1481698,vowelstep7.wav,None,1000,1,1785704,332,305.285
A,2,1481698,sinestep1_catch.wav,2,297,1,1787704,335,307.285
A,2,1481698,silence.wav,None,1000,1,1789704,1043,309.285
A,2,1481698,silence.wav,None,1000,1,1791704,345,311.285
A,2,1481698,vowelstep7.wav,None,1000,1,1793704,345,313.285
A,2,1481698,sinestep1.wav,None,1000,1,1795704,355,315.285
A,2,1481698,vowelstep7.wav,None,1000,1,1797704,335,317.285
A,2,1481698,vowelstep7.wav,None,1000,1,1799704,334,319.285
H,3,1872831,sinestep3.wav,None,1000,1,1872839,0,1.285
H,3,1872831,sinestep7.wav,None,1000,1,1874839,322,3.285
H,3,1872831,sinestep3.wav,None,1000,1,1876839,330,5.285
H,3,1872831,vowelstep3.wav,None,1000,1,1878839,332,7.285
H,3,1872831,vowelstep1.wav,None,1000,1,1880838,342,9.285
H,3,1872831,sinestep7.wav,None,1000,1,1882838,342,11.285
H,3,1872831,vowelstep3.wav,None,1000,1,1884838,343,13.285
H,3,1872831,silence.wav,None,1000,1,1886839,341,15.285
H,3,1872831,vowelstep1.wav,None,1000,1,1888839,328,17.285
H,3,1872831,sinestep5.wav,None,1000,1,1890839,331,19.285
H,3,1872831,sinestep7.wav,None,1000,1,1892839,331,21.285
H,3,1872831,vowelstep7.wav,None,1000,1,1894839,330,23.285
H,3,1872831,vowelstep1_catch.wav,2,218,1,1896839,340,25.285
H,3,1872831,sinestep5.wav,None,1000,1,1898839,1122,27.285
H,3,1872831,vowelstep5.wav,None,1000,1,1900839,351,29.285
H,3,1872831,silence.wav,None,1000,1,1902839,329,31.285
H,3,1872831,vowelstep3_catch.wav,2,331,1,1904839,327,33.285
H,3,1872831,sinestep7.wav,None,1000,1,1906839,998,35.285
H,3,1872831,sinestep5.wav,None,1000,1,1908839,335,37.285
H,3,1872831,silence.wav,None,1000,1,1910839,339,39.285
H,3,1872831,vowelstep3.wav,None,1000,1,1912839,339,41.285
H,3,1872831,vowelstep1.wav,None,1000,1,1914839,350,43.285
H,3,1872831,vowelstep1.wav,None,1000,1,1916839,329,45.285
H,3,1872831,vowelstep3.wav,None,1000,1,1918839,331,47.285
H,3,1872831,sinestep3.wav,None,1000,1,1920839,326,49.285
H,3,1872831,vowelstep1.wav,None,1000,1,1922840,331,51.285
H,3,1872831,sinestep7.wav,None,1000,1,1924840,335,53.285
H,3,1872831,vowelstep7.wav,None,1000,1,1926840,338,55.285
H,3,1872831,vowelstep5_catch.wav,2,141,1,1928839,347,57.285
H,3,1872831,vowelstep5.wav,None,1000,1,1930839,1208,59.285
H,3,1872831,vowelstep3.wav,None,1000,1,1932839,330,61.285
H,3,1872831,vowelstep7_catch.wav,2,129,1,1934839,329,63.285
H,3,1872831,sinestep3.wav,None,1000,1,1936839,1209,65.285
H,3,1872831,sinestep1.wav,None,1000,1,1938839,337,67.285
H,3,1872831,sinestep7.wav,None,1000,1,1940840,338,69.285
H,3,1872831,silence.wav,None,1000,1,1942840,338,71.285
H,3,1872831,vowelstep1.wav,None,1000,1,1944840,319,73.285
H,3,1872831,vowelstep7.wav,None,1000,1,1946840,327,75.285
H,3,1872831,sinestep7.wav,None,1000,1,1948840,328,77.285
H,3,1872831,sinestep1.wav,None,1000,1,1950840,327,79.285
H,3,1872831,sinestep7.wav,None,1000,1,1952839,334,81.285
H,3,1872831,sinestep1.wav,None,1000,1,1954839,338,83.285
H,3,1872831,vowelstep5.wav,None,1000,1,1956840,321,85.285
H,3,1872831,sinestep3.wav,None,1000,1,1958840,344,87.285
H,3,1872831,vowelstep5.wav,None,1000,1,1960840,324,89.285
H,3,1872831,silence.wav,None,1000,1,1962840,323,91.285
H,3,1872831,silence.wav,None,1000,1,1964840,324,93.285
H,3,1872831,sinestep5.wav,None,1000,1,1966840,334,95.285
H,3,1872831,sinestep3.wav,None,1000,1,1968840,331,97.285
H,3,1872831,sinestep7.wav,None,1000,1,1970840,335,99.285
H,3,1872831,sinestep7_catch.wav,2,203,1,1972840,341,101.285
H,3,1872831,silence.wav,None,1000,1,1974841,1122,103.285
H,3,1872831,sinestep3.wav,None,1000,1,1976840,324,105.285
H,3,1872831,silence.wav,None,1000,1,1978840,324,107.285
H,3,1872831,vowelstep1.wav,None,1000,1,1980840,335,109.285
H,3,1872831,vowelstep7.wav,None,1000,1,1982840,334,111.285
H,3,1872831,sinestep5.wav,None,1000,1,1984840,335,113.285
H,3,1872831,silence.wav,None,1000,1,1986840,334,115.285
H,3,1872831,vowelstep7.wav,None,1000,1,1988840,321,117.285
H,3,1872831,vowelstep3.wav,None,1000,1,1990840,326,119.285
H,3,1872831,sinestep5.wav,None,1000,1,1992841,323,121.285
H,3,1872831,sinestep1.wav,None,1000,1,1994841,337,123.285
H,3,1872831,vowelstep3.wav,None,1000,1,1996841,329,125.285
H,3,1872831,vowelstep3.wav,None,1000,1,1998841,332,127.285
H,3,1872831,vowelstep5.wav,None,1000,1,2000840,345,129.285
H,3,1872831,vowelstep1.wav,None,1000,1,2002840,316,131.285
H,3,1872831,vowelstep7.wav,None,1000,1,2004840,322,133.285
H,3,1872831,vowelstep3.wav,None,1000,1,2006840,325,135.285
H,3,1872831,vowelstep5.wav,None,1000,1,2008840,334,137.285
H,3,1872831,vowelstep5.wav,None,1000,1,2010841,334,139.285
H,3,1872831,sinestep7.wav,None,1000,1,2012841,334,141.285
H,3,1872831,vowelstep1.wav,None,1000,1,2014841,333,143.285
H,3,1872831,sinestep3.wav,None,1000,1,2016841,329,145.285
H,3,1872831,sinestep1.wav,None,1000,1,2018841,330,147.285
H,3,1872831,vowelstep1.wav,None,1000,1,2020841,326,149.285
H,3,1872831,sinestep5_catch.wav,2,113,1,2022841,327,151.285
H,3,1872831,sinestep7.wav,None,1000,1,2024841,1222,153.285
H,3,1872831,sinestep3_catch.wav,2,30,1,2026841,339,155.285
H,3,1872831,sinestep7.wav,None,1000,1,2028841,1308,157.285
H,3,1872831,sinestep5.wav,None,1000,1,2030841,330,159.285
H,3,1872831,silence.wav,None,1000,1,2032841,328,161.285
H,3,1872831,sinestep1_catch.wav,2,151,1,2034841,329,163.285
H,3,1872831,vowelstep7.wav,None,1000,1,2036841,1174,165.285
H,3,1872831,vowelstep7.wav,None,1000,1,2038841,337,167.285
H,3,1872831,sinestep7.wav,None,1000,1,2040841,339,169.285
H,3,1872831,sinestep3.wav,None,1000,1,2042841,338,171.285
H,3,1872831,sinestep5.wav,None,1000,1,2044842,319,173.285
H,3,1872831,vowelstep1_catch.wav,2,136,1,2046842,328,175.285
H,3,1872831,vowelstep1.wav,None,1000,1,2048841,1192,177.285
H,3,1872831,sinestep3.wav,None,1000,1,2050841,329,179.285
H,3,1872831,sinestep3.wav,None,1000,1,2052841,338,181.285
H,3,1872831,vowelstep5.wav,None,1000,1,2054841,339,183.285
H,3,1872831,sinestep1.wav,None,1000,1,2056841,338,185.285
H,3,1872831,sinestep1.wav,None,1000,1,2058841,329,187.285
H,3,1872831,vowelstep7.wav,None,1000,1,2060841,329,189.285
H,3,1872831,sinestep1.wav,None,1000,1,2062842,330,191.285
H,3,1872831,sinestep5.wav,None,1000,1,2064842,327,193.285
H,3,1872831,vowelstep3_catch.wav,2,200,1,2066842,331,195.285
H,3,1872831,sinestep1.wav,None,1000,1,2068842,1138,197.285
H,3,1872831,silence.wav,None,1000,1,2070842,337,199.285
H,3,1872831,vowelstep1.wav,None,1000,1,2072841,349,201.285
H,3,1872831,vowelstep5_catch.wav,2,212,1,2074841,327,203.285
H,3,1872831,sinestep5.wav,None,1000,1,2076841,1115,205.285
H,3,1872831,sinestep1.wav,None,1000,1,2078841,328,207.285
H,3,1872831,silence.wav,None,1000,1,2080842,335,209.285
H,3,1872831,sinestep3.wav,None,1000,1,2082842,335,211.285
H,3,1872831,silence.wav,None,1000,1,2084842,336,213.285
H,3,1872831,vowelstep7_catch.wav,2,302,1,2086842,346,215.285
H,3,1872831,vowelstep5.wav,None,1000,1,2088842,1023,217.285
H,3,1872831,sinestep7.wav,None,1000,1,2090842,326,219.285
H,3,1872831,silence.wav,None,1000,1,2092842,325,221.285
H,3,1872831,sinestep1.wav,None,1000,1,2094842,336,223.285
H,3,1872831,silence.wav,None,1000,1,2096842,335,225.285
H,3,1872831,silence.wav,None,1000,1,2098842,335,227.285
H,3,1872831,silence.wav,None,1000,1,2100842,341,229.285
H,3,1872831,silence.wav,None,1000,1,2102842,346,231.285
H,3,1872831,sinestep5.wav,None,1000,1,2104842,343,233.285
H,3,1872831,silence.wav,None,1000,1,2106842,324,235.285
H,3,1872831,vowelstep3.wav,None,1000,1,2108842,335,237.285
H,3,1872831,silence.wav,None,1000,1,2110842,334,239.285
H,3,1872831,silence.wav,None,1000,1,2112842,334,241.285
H,3,1872831,vowelstep1_catch.wav,2,266,1,2114843,344,243.285
H,3,1872831,vowelstep5.wav,None,1000,1,2116843,1077,245.285
H,3,1872831,vowelstep7.wav,None,1000,1,2118843,344,247.285
H,3,1872831,vowelstep3_catch.wav,2,88,1,2120842,343,249.285
H,3,1872831,vowelstep1.wav,None,1000,1,2122842,1245,251.285
H,3,1872831,sinestep3.wav,None,1000,1,2124842,333,253.285
H,3,1872831,vowelstep5_catch.wav,2,241,1,2126842,333,255.285
H,3,1872831,vowelstep5.wav,None,1000,1,2128842,1092,257.285
H,3,1872831,silence.wav,None,1000,1,2130842,343,259.285
H,3,1872831,vowelstep7.wav,None,1000,1,2132843,341,261.285
H,3,1872831,sinestep5.wav,None,1000,1,2134843,353,263.285
H,3,1872831,vowelstep5.wav,None,1000,1,2136843,328,265.285
H,3,1872831,vowelstep7.wav,None,1000,1,2138843,331,267.285
H,3,1872831,vowelstep3.wav,None,1000,1,2140843,332,269.285
H,3,1872831,vowelstep3.wav,None,1000,1,2142843,340,271.285
H,3,1872831,silence.wav,None,1000,1,2144842,343,273.285
H,3,1872831,vowelstep3.wav,None,1000,1,2146842,342,275.285
H,3,1872831,sinestep1.wav,None,1000,1,2148843,339,277.285
H,3,1872831,silence.wav,None,1000,1,2150843,328,279.285
H,3,1872831,sinestep1.wav,None,1000,1,2152843,329,281.285
H,3,1872831,vowelstep3.wav,None,1000,1,2154843,332,283.285
H,3,1872831,silence.wav,None,1000,1,2156843,330,285.285
H,3,1872831,vowelstep5.wav,None,1000,1,2158843,342,287.285
H,3,1872831,vowelstep5.wav,None,1000,1,2160843,341,289.285
H,3,1872831,vowelstep1.wav,None,1000,1,2162843,352,291.285
H,3,1872831,sinestep5.wav,None,1000,1,2164843,331,293.285
H,3,1872831,vowelstep7.wav,None,1000,1,2166844,332,295.285
H,3,1872831,vowelstep1.wav,None,1000,1,2168843,331,297.285
H,3,1872831,vowelstep7.wav,None,1000,1,2170843,331,299.285
H,3,1872831,vowelstep3.wav,None,1000,1,2172843,341,301.285
H,3,1872831,sinestep1.wav,None,1000,1,2174843,341,303.285
H,3,1872831,sinestep5.wav,None,1000,1,2176843,340,305.285
H,3,1872831,vowelstep5.wav,None,1000,1,2178843,350,307.285
H,3,1872831,sinestep3.wav,None,1000,1,2180843,327,309.285
H,3,1872831,vowelstep7.wav,None,1000,1,2182843,331,311.285
H,3,1872831,sinestep7.wav,None,1000,1,2184844,330,313.285
H,3,1872831,sinestep5.wav,None,1000,1,2186844,341,315.285
H,3,1872831,sinestep3.wav,None,1000,1,2188844,339,317.285
H,3,1872831,sinestep1.wav,None,1000,1,2190844,339,319.285
E,4,2266058,vowelstep7.wav,None,1000,1,2266061,0,1.285
E,4,2266058,sinestep3.wav,None,1000,1,2268078,342,3.285
E,4,2266058,sinestep5.wav,None,1000,1,2270078,323,5.285
E,4,2266058,sinestep1.wav,None,1000,1,2272062,322,7.285
E,4,2266058,sinestep5.wav,None,1000,1,2274062,351,9.285
E,4,2266058,silence.wav,None,1000,1,2276062,332,11.285
E,4,2266058,vowelstep1.wav,None,1000,1,2278062,362,13.285
E,4,2266058,vowelstep7.wav,None,1000,1,2280062,342,15.285
E,4,2266058,vowelstep1.wav,None,1000,1,2282061,341,17.285
E,4,2266058,sinestep1_catch.wav,2,164,1,2284061,351,19.285
E,4,2266058,vowelstep5.wav,None,1000,1,2286078,1187,21.285
E,4,2266058,sinestep5.wav,None,1000,1,2288078,331,23.285
E,4,2266058,vowelstep5.wav,None,1000,1,2290062,331,25.285
E,4,2266058,vowelstep3.wav,None,1000,1,2292062,361,27.285
E,4,2266058,sinestep1.wav,None,1000,1,2294062,341,29.285
E,4,2266058,vowelstep5.wav,None,1000,1,2296062,340,31.285
E,4,2266058,silence.wav,None,1000,1,2298062,340,33.285
E,4,2266058,silence.wav,None,1000,1,2300062,350,35.285
E,4,2266058,sinestep3.wav,None,1000,1,2302062,348,37.285
E,4,2266058,sinestep3.wav,None,1000,1,2304062,351,39.285
E,4,2266058,sinestep3.wav,None,1000,1,2306078,330,41.285
E,4,2266058,sinestep1.wav,None,1000,1,2308062,331,43.285
E,4,2266058,vowelstep1.wav,None,1000,1,2310062,339,45.285
E,4,2266058,sinestep1.wav,None,1000,1,2312062,341,47.285
E,4,2266058,vowelstep7.wav,None,1000,1,2314062,349,49.285
E,4,2266058,vowelstep5.wav,None,1000,1,2316062,350,51.285
E,4,2266058,sinestep7.wav,None,1000,1,2318062,346,53.285
E,4,2266058,sinestep1.wav,None,1000,1,2320062,339,55.285
E,4,2266058,vowelstep5.wav,None,1000,1,2322062,337,57.285
E,4,2266058,sinestep3.wav,None,1000,1,2324063,338,59.285
E,4,2266058,vowelstep1.wav,None,1000,1,2326063,339,61.285
E,4,2266058,vowelstep5.wav,None,1000,1,2328063,347,63.285
E,4,2266058,vowelstep3.wav,None,1000,1,2330063,347,65.285
E,4,2266058,sinestep1.wav,None,1000,1,2332062,348,67.285
E,4,2266058,vowelstep3.wav,None,1000,1,2334062,354,69.285
E,4,2266058,silence.wav,None,1000,1,2336062,339,71.285
E,4,2266058,vowelstep3.wav,None,1000,1,2338062,336,73.285
E,4,2266058,sinestep3_catch.wav,2,255,1,2340062,339,75.285
E,4,2266058,sinestep3.wav,None,1000,1,2342063,1092,77.285
E,4,2266058,vowelstep3.wav,None,1000,1,2344063,347,79.285
E,4,2266058,vowelstep7.wav,None,1000,1,2346063,347,81.285
E,4,2266058,silence.wav,None,1000,1,2348063,357,83.285
E,4,2266058,sinestep3.wav,None,1000,1,2350063,333,85.285
E,4,2266058,silence.wav,None,1000,1,2352063,335,87.285
E,4,2266058,sinestep1.wav,None,1000,1,2354063,336,89.285
E,4,2266058,sinestep5_catch.wav,2,231,1,2356062,347,91.285
E,4,2266058,vowelstep3.wav,None,1000,1,2358062,1113,93.285
E,4,2266058,sinestep5.wav,None,1000,1,2360063,347,95.285
E,4,2266058,vowelstep7.wav,None,1000,1,2362063,347,97.285
E,4,2266058,sinestep1.wav,None,1000,1,2364063,336,99.285
E,4,2266058,sinestep5.wav,None,1000,1,2366063,335,101.285
E,4,2266058,sinestep5.wav,None,1000,1,2368063,336,103.285
E,4,2266058,vowelstep7.wav,None,1000,1,2370063,336,105.285
E,4,2266058,vowelstep3.wav,None,1000,1,2372063,346,107.285
E,4,2266058,vowelstep7.wav,None,1000,1,2374063,346,109.285
E,4,2266058,sinestep5.wav,None,1000,1,2376063,346,111.285
E,4,2266058,vowelstep3.wav,None,1000,1,2378064,325,113.285
E,4,2266058,vowelstep7.wav,None,1000,1,2380063,334,115.285
E,4,2266058,sinestep3.wav,None,1000,1,2382063,335,117.285
E,4,2266058,vowelstep7.wav,None,1000,1,2384063,336,119.285
E,4,2266058,silence.wav,None,1000,1,2386063,345,121.285
E,4,2266058,silence.wav,None,1000,1,2388063,346,123.285
E,4,2266058,sinestep7.wav,None,1000,1,2390063,345,125.285
E,4,2266058,sinestep7_catch.wav,2,193,1,2392063,335,127.285
E,4,2266058,sinestep7.wav,None,1000,1,2394064,1139,129.285
E,4,2266058,silence.wav,None,1000,1,2396064,334,131.285
E,4,2266058,sinestep7_catch.wav,2,159,1,2398064,334,133.285
E,4,2266058,sinestep7.wav,None,1000,1,2400064,1184,135.285
E,4,2266058,sinestep5_catch.wav,2,165,1,2402064,339,137.285
E,4,2266058,sinestep1.wav,None,1000,1,2404063,1179,139.285
E,4,2266058,sinestep1.wav,None,1000,1,2406063,353,141.285
E,4,2266058,sinestep1.wav,None,1000,1,2408063,334,143.285
E,4,2266058,sinestep3.wav,None,1000,1,2410063,334,145.285
E,4,2266058,vowelstep5.wav,None,1000,1,2412064,334,147.285
E,4,2266058,silence.wav,None,1000,1,2414064,344,149.285
E,4,2266058,sinestep3_catch.wav,2,229,1,2416064,339,151.285
E,4,2266058,silence.wav,None,1000,1,2418064,1112,153.285
E,4,2266058,sinestep7.wav,None,1000,1,2420064,322,155.285
E,4,2266058,sinestep5.wav,None,1000,1,2422064,334,157.285
E,4,2266058,silence.wav,None,1000,1,2424064,333,159.285
E,4,2266058,vowelstep5.wav,None,1000,1,2426064,332,161.285
E,4,2266058,vowelstep1.wav,None,1000,1,2428063,343,163.285
E,4,2266058,vowelstep3.wav,None,1000,1,2430064,342,165.285
E,4,2266058,sinestep5.wav,None,1000,1,2432064,341,167.285
E,4,2266058,sinestep7.wav,None,1000,1,2434064,342,169.285
E,4,2266058,vowelstep1.wav,None,1000,1,2436064,332,171.285
E,4,2266058,vowelstep7.wav,None,1000,1,2438064,332,173.285
E,4,2266058,sinestep3.wav,None,1000,1,2440064,331,175.285
E,4,2266058,silence.wav,None,1000,1,2442064,341,177.285
E,4,2266058,sinestep1_catch.wav,2,246,1,2444064,341,179.285
E,4,2266058,sinestep7.wav,None,1000,1,2446065,1094,181.285
E,4,2266058,vowelstep1.wav,None,1000,1,2448065,350,183.285
E,4,2266058,sinestep5.wav,None,1000,1,2450065,321,185.285
E,4,2266058,sinestep5.wav,None,1000,1,2452064,331,187.285
E,4,2266058,vowelstep1.wav,None,1000,1,2454064,331,189.285
E,4,2266058,sinestep7.wav,None,1000,1,2456064,341,191.285
E,4,2266058,sinestep3.wav,None,1000,1,2458064,340,193.285
E,4,2266058,sinestep7.wav,None,1000,1,2460064,341,195.285
E,4,2266058,silence.wav,None,1000,1,2462064,336,197.285
E,4,2266058,vowelstep1.wav,None,1000,1,2464065,327,199.285
E,4,2266058,sinestep1.wav,None,1000,1,2466065,329,201.285
E,4,2266058,vowelstep1.wav,None,1000,1,2468065,328,203.285
E,4,2266058,vowelstep1.wav,None,1000,1,2470065,330,205.285
E,4,2266058,vowelstep1_catch.wav,2,208,1,2472065,339,207.285
E,4,2266058,vowelstep1.wav,None,1000,1,2474065,1130,209.285
E,4,2266058,vowelstep1.wav,None,1000,1,2476064,349,211.285
E,4,2266058,silence.wav,None,1000,1,2478064,316,213.285
E,4,2266058,sinestep7.wav,None,1000,1,2480064,330,215.285
E,4,2266058,vowelstep7.wav,None,1000,1,2482065,328,217.285
E,4,2266058,vowelstep3_catch.wav,2,145,1,2484065,338,219.285
E,4,2266058,vowelstep5.wav,None,1000,1,2486065,1193,221.285
E,4,2266058,sinestep3.wav,None,1000,1,2488065,338,223.285
E,4,2266058,silence.wav,None,1000,1,2490065,348,225.285
E,4,2266058,sinestep1.wav,None,1000,1,2492065,318,227.285
E,4,2266058,sinestep5.wav,None,1000,1,2494065,328,229.285
E,4,2266058,sinestep5.wav,None,1000,1,2496065,329,231.285
E,4,2266058,sinestep3.wav,None,1000,1,2498065,327,233.285
E,4,2266058,sinestep5.wav,None,1000,1,2500065,337,235.285
E,4,2266058,vowelstep3.wav,None,1000,1,2502065,337,237.285
E,4,2266058,sinestep7.wav,None,1000,1,2504065,337,239.285
E,4,2266058,sinestep7.wav,None,1000,1,2506065,347,241.285
E,4,2266058,silence.wav,None,1000,1,2508065,347,243.285
E,4,2266058,sinestep3.wav,None,1000,1,2510065,347,245.285
E,4,2266058,sinestep3.wav,None,1000,1,2512065,327,247.285
E,4,2266058,vowelstep3.wav,None,1000,1,2514065,338,249.285
E,4,2266058,silence.wav,None,1000,1,2516066,337,251.285
E,4,2266058,sinestep7.wav,None,1000,1,2518066,336,253.285
E,4,2266058,silence.wav,None,1000,1,2520066,346,255.285
E,4,2266058,vowelstep7.wav,None,1000,1,2522066,347,257.285
E,4,2266058,vowelstep3.wav,None,1000,1,2524065,326,259.285
E,4,2266058,silence.wav,None,1000,1,2526065,332,261.285
E,4,2266058,vowelstep3.wav,None,1000,1,2528065,334,263.285
E,4,2266058,vowelstep1.wav,None,1000,1,2530065,336,265.285
E,4,2266058,vowelstep5.wav,None,1000,1,2532065,335,267.285
E,4,2266058,silence.wav,None,1000,1,2534066,347,269.285
E,4,2266058,vowelstep3.wav,None,1000,1,2536066,346,271.285
E,4,2266058,sinestep1.wav,None,1000,1,2538066,345,273.285
E,4,2266058,vowelstep5_catch.wav,2,246,1,2540066,325,275.285
E,4,2266058,sinestep7.wav,None,1000,1,2542066,1085,277.285
E,4,2266058,sinestep7.wav,None,1000,1,2544066,335,279.285
E,4,2266058,vowelstep7.wav,None,1000,1,2546066,334,281.285
E,4,2266058,silence.wav,None,1000,1,2548066,346,283.285
E,4,2266058,sinestep5.wav,None,1000,1,2550065,346,285.285
E,4,2266058,silence.wav,None,1000,1,2552066,346,287.285
E,4,2266058,silence.wav,None,1000,1,2554066,354,289.285
E,4,2266058,vowelstep5.wav,None,1000,1,2556066,334,291.285
E,4,2266058,vowelstep5.wav,None,1000,1,2558066,335,293.285
E,4,2266058,silence.wav,None,1000,1,2560066,334,295.285
E,4,2266058,vowelstep5.wav,None,1000,1,2562066,335,297.285
E,4,2266058,vowelstep7_catch.wav,2,241,1,2564066,345,299.285
E,4,2266058,vowelstep7_catch.wav,2,229,1,2566066,1102,301.285
E,4,2266058,vowelstep5.wav,None,1000,1,2568066,1125,303.285
E,4,2266058,sinestep1.wav,None,1000,1,2570067,333,305.285
E,4,2266058,vowelstep3.wav,None,1000,1,2572067,333,307.285
E,4,2266058,vowelstep5_catch.wav,2,266,1,2574066,333,309.285
E,4,2266058,vowelstep7.wav,None,1000,1,2576066,1076,311.285
E,4,2266058,vowelstep5.wav,None,1000,1,2578066,343,313.285
E,4,2266058,vowelstep7.wav,None,1000,1,2580066,343,315.285
E,4,2266058,vowelstep1.wav,None,1000,1,2582066,353,317.285
E,4,2266058,vowelstep3_catch.wav,2,277,1,2584066,333,319.285
I,5,2643888,vowelstep7.wav,None,1000,1,2643901,0,1.285
I,5,2643888,sinestep1_catch.wav,2,305,1,2645901,328,3.285
I,5,2643888,sinestep3.wav,None,1000,1,2647901,1019,5.285
I,5,2643888,silence.wav,None,1000,1,2649901,327,7.285
I,5,2643888,vowelstep7.wav,None,1000,1,2651901,336,9.285
I,5,2643888,sinestep3_catch.wav,2,111,1,2653900,339,11.285
I,5,2643888,vowelstep3.wav,None,1000,1,2655901,1226,13.285
I,5,2643888,vowelstep3.wav,None,1000,1,2657901,338,15.285
I,5,2643888,silence.wav,None,1000,1,2659901,328,17.285
I,5,2643888,vowelstep1.wav,None,1000,1,2661901,327,19.285
I,5,2643888,vowelstep5.wav,None,1000,1,2663901,329,21.285
I,5,2643888,vowelstep7.wav,None,1000,1,2665901,338,23.285
I,5,2643888,sinestep1.wav,None,1000,1,2667901,338,25.285
I,5,2643888,vowelstep1.wav,None,1000,1,2669901,338,27.285
I,5,2643888,sinestep5_catch.wav,2,113,1,2671901,344,29.285
I,5,2643888,sinestep5.wav,None,1000,1,2673902,1214,31.285
I,5,2643888,vowelstep1.wav,None,1000,1,2675902,326,33.285
I,5,2643888,sinestep7.wav,None,1000,1,2677901,324,35.285
I,5,2643888,vowelstep3.wav,None,1000,1,2679901,336,37.285
I,5,2643888,vowelstep1.wav,None,1000,1,2681901,335,39.285
I,5,2643888,vowelstep1.wav,None,1000,1,2683901,335,41.285
I,5,2643888,sinestep3.wav,None,1000,1,2685901,337,43.285
I,5,2643888,sinestep5.wav,None,1000,1,2687901,325,45.285
I,5,2643888,sinestep5.wav,None,1000,1,2689901,327,47.285
I,5,2643888,vowelstep3.wav,None,1000,1,2691902,327,49.285
I,5,2643888,silence.wav,None,1000,1,2693902,336,51.285
I,5,2643888,sinestep7_catch.wav,2,77,1,2695902,336,53.285
I,5,2643888,silence.wav,None,1000,1,2697902,1259,55.285
I,5,2643888,sinestep1.wav,None,1000,1,2699902,346,57.285
I,5,2643888,vowelstep1.wav,None,1000,1,2701901,316,59.285
I,5,2643888,sinestep1.wav,None,1000,1,2703901,327,61.285
I,5,2643888,sinestep1.wav,None,1000,1,2705901,326,63.285
I,5,2643888,vowelstep7.wav,None,1000,1,2707901,325,65.285
I,5,2643888,sinestep5.wav,None,1000,1,2709902,335,67.285
I,5,2643888,sinestep5_catch.wav,2,162,1,2711902,335,69.285
I,5,2643888,vowelstep7.wav,None,1000,1,2713902,1168,71.285
I,5,2643888,vowelstep5.wav,None,1000,1,2715902,314,73.285
I,5,2643888,sinestep3.wav,None,1000,1,2717902,323,75.285
I,5,2643888,vowelstep1.wav,None,1000,1,2719902,321,77.285
I,5,2643888,sinestep3.wav,None,1000,1,2721902,325,79.285
I,5,2643888,sinestep5.wav,None,1000,1,2723902,333,81.285
I,5,2643888,sinestep5.wav,None,1000,1,2725902,335,83.285
I,5,2643888,vowelstep5.wav,None,1000,1,2727902,330,85.285
I,5,2643888,vowelstep7.wav,None,1000,1,2729902,344,87.285
I,5,2643888,sinestep3.wav,None,1000,1,2731902,322,89.285
I,5,2643888,vowelstep3.wav,None,1000,1,2733902,325,91.285
I,5,2643888,sinestep3.wav,None,1000,1,2735902,324,93.285
I,5,2643888,vowelstep5.wav,None,1000,1,2737902,334,95.285
I,5,2643888,sinestep7.wav,None,1000,1,2739902,333,97.285
I,5,2643888,sinestep3_catch.wav,2,85,1,2741902,334,99.285
I,5,2643888,sinestep1_catch.wav,2,149,1,2743903,1228,101.285
I,5,2643888,vowelstep3.wav,None,1000,1,2745903,1169,103.285
I,5,2643888,vowelstep3.wav,None,1000,1,2747903,322,105.285
I,5,2643888,vowelstep5.wav,None,1000,1,2749902,321,107.285
I,5,2643888,sinestep5.wav,None,1000,1,2751902,328,109.285
I,5,2643888,vowelstep5.wav,None,1000,1,2753902,332,111.285
I,5,2643888,vowelstep5.wav,None,1000,1,2755902,332,113.285
I,5,2643888,vowelstep1.wav,None,1000,1,2757902,342,115.285
I,5,2643888,vowelstep1_catch.wav,2,129,1,2759902,321,117.285
I,5,2643888,sinestep7.wav,None,1000,1,2761903,1189,119.285
I,5,2643888,vowelstep3.wav,None,1000,1,2763903,321,121.285
I,5,2643888,sinestep7.wav,None,1000,1,2765903,326,123.285
I,5,2643888,sinestep7.wav,None,1000,1,2767903,332,125.285
I,5,2643888,vowelstep7.wav,None,1000,1,2769903,331,127.285
I,5,2643888,vowelstep3.wav,None,1000,1,2771903,341,129.285
I,5,2643888,sinestep5.wav,None,1000,1,2773903,322,131.285
I,5,2643888,sinestep5.wav,None,1000,1,2775902,318,133.285
I,5,2643888,vowelstep3.wav,None,1000,1,2777902,319,135.285
I,5,2643888,sinestep5.wav,None,1000,1,2779903,328,137.285
I,5,2643888,sinestep1.wav,None,1000,1,2781903,330,139.285
I,5,2643888,vowelstep7.wav,None,1000,1,2783903,329,141.285
I,5,2643888,silence.wav,None,1000,1,2785903,339,143.285
I,5,2643888,vowelstep7.wav,None,1000,1,2787903,310,145.285
I,5,2643888,silence.wav,None,1000,1,2789903,320,147.285
I,5,2643888,sinestep1.wav,None,1000,1,2791903,320,149.285
I,5,2643888,vowelstep1.wav,None,1000,1,2793903,330,151.285
I,5,2643888,vowelstep3.wav,None,1000,1,2795904,330,153.285
I,5,2643888,silence.wav,None,1000,1,2797904,329,155.285
I,5,2643888,silence.wav,None,1000,1,2799903,335,157.285
I,5,2643888,vowelstep1.wav,None,1000,1,2801903,319,159.285
I,5,2643888,sinestep1.wav,None,1000,1,2803903,318,161.285
I,5,2643888,vowelstep3_catch.wav,2,110,1,2805903,319,163.285
I,5,2643888,sinestep1.wav,None,1000,1,2807903,1218,165.285
I,5,2643888,vowelstep5.wav,None,1000,1,2809903,326,167.285
I,5,2643888,vowelstep5_catch.wav,2,136,1,2811903,329,169.285
I,5,2643888,sinestep1.wav,None,1000,1,2813904,1201,171.285
I,5,2643888,silence.wav,None,1000,1,2815904,305,173.285
I,5,2643888,vowelstep5.wav,None,1000,1,2817904,318,175.285
I,5,2643888,sinestep3.wav,None,1000,1,2819904,316,177.285
I,5,2643888,sinestep3.wav,None,1000,1,2821904,328,179.285
I,5,2643888,silence.wav,None,1000,1,2823903,325,181.285
I,5,2643888,silence.wav,None,1000,1,2825903,328,183.285
I,5,2643888,vowelstep3.wav,None,1000,1,2827903,333,185.285
I,5,2643888,vowelstep7.wav,None,1000,1,2829903,338,187.285
I,5,2643888,vowelstep7.wav,None,1000,1,2831904,317,189.285
I,5,2643888,silence.wav,None,1000,1,2833904,318,191.285
I,5,2643888,sinestep3.wav,None,1000,1,2835904,327,193.285
I,5,2643888,sinestep3.wav,None,1000,1,2837904,327,195.285
I,5,2643888,vowelstep5.wav,None,1000,1,2839904,327,197.285
I,5,2643888,vowelstep1.wav,None,1000,1,2841904,328,199.285
I,5,2643888,vowelstep1.wav,None,1000,1,2843904,338,201.285
I,5,2643888,sinestep5.wav,None,1000,1,2845904,337,203.285
I,5,2643888,silence.wav,None,1000,1,2847903,337,205.285
I,5,2643888,sinestep5.wav,None,1000,1,2849904,316,207.285
I,5,2643888,sinestep7.wav,None,1000,1,2851904,326,209.285
I,5,2643888,sinestep1.wav,None,1000,1,2853904,326,211.285
I,5,2643888,sinestep5.wav,None,1000,1,2855904,326,213.285
I,5,2643888,vowelstep5.wav,None,1000,1,2857904,333,215.285
I,5,2643888,sinestep7.wav,None,1000,1,2859904,336,217.285
I,5,2643888,sinestep5.wav,None,1000,1,2861904,334,219.285
I,5,2643888,sinestep3.wav,None,1000,1,2863904,326,221.285
I,5,2643888,silence.wav,None,1000,1,2865905,326,223.285
I,5,2643888,vowelstep7_catch.wav,2,201,1,2867905,326,225.285
I,5,2643888,sinestep7.wav,None,1000,1,2869905,1123,227.285
I,5,2643888,sinestep7.wav,None,1000,1,2871904,332,229.285
I,5,2643888,sinestep3.wav,None,1000,1,2873904,335,231.285
I,5,2643888,vowelstep3.wav,None,1000,1,2875904,333,233.285
I,5,2643888,silence.wav,None,1000,1,2877904,316,235.285
I,5,2643888,sinestep3.wav,None,1000,1,2879904,325,237.285
I,5,2643888,sinestep5.wav,None,1000,1,2881904,325,239.285
I,5,2643888,silence.wav,None,1000,1,2883905,324,241.285
I,5,2643888,vowelstep3.wav,None,1000,1,2885905,334,243.285
I,5,2643888,sinestep1.wav,None,1000,1,2887905,334,245.285
I,5,2643888,sinestep1.wav,None,1000,1,2889905,331,247.285
I,5,2643888,sinestep7.wav,None,1000,1,2891905,344,249.285
I,5,2643888,vowelstep7.wav,None,1000,1,2893905,323,251.285
I,5,2643888,vowelstep5.wav,None,1000,1,2895904,324,253.285
I,5,2643888,silence.wav,None,1000,1,2897904,324,255.285
I,5,2643888,sinestep3.wav,None,1000,1,2899904,333,257.285
I,5,2643888,vowelstep1.wav,None,1000,1,2901905,333,259.285
I,5,2643888,vowelstep1.wav,None,1000,1,2903905,332,261.285
I,5,2643888,silence.wav,None,1000,1,2905905,343,263.285
I,5,2643888,vowelstep3.wav,None,1000,1,2907905,313,265.285
I,5,2643888,silence.wav,None,1000,1,2909905,323,267.285
I,5,2643888,silence.wav,None,1000,1,2911905,324,269.285
I,5,2643888,sinestep7.wav,None,1000,1,2913905,331,271.285
I,5,2643888,sinestep7.wav,None,1000,1,2915905,333,273.285
I,5,2643888,vowelstep5.wav,None,1000,1,2917905,332,275.285
I,5,2643888,silence.wav,None,1000,1,2919905,341,277.285
I,5,2643888,silence.wav,None,1000,1,2921905,317,279.285
I,5,2643888,sinestep1.wav,None,1000,1,2923905,321,281.285
I,5,2643888,silence.wav,None,1000,1,2925905,320,283.285
I,5,2643888,vowelstep7.wav,None,1000,1,2927905,331,285.285
I,5,2643888,vowelstep5_catch.wav,2,277,1,2929905,331,287.285
I,5,2643888,sinestep7.wav,None,1000,1,2931905,1054,289.285
I,5,2643888,sinestep1.wav,None,1000,1,2933905,331,291.285
I,5,2643888,vowelstep3_catch.wav,2,263,1,2935906,318,293.285
I,5,2643888,sinestep1.wav,None,1000,1,2937906,1055,295.285
I,5,2643888,vowelstep7.wav,None,1000,1,2939906,319,297.285
I,5,2643888,sinestep3.wav,None,1000,1,2941906,321,299.285
I,5,2643888,vowelstep5.wav,None,1000,1,2943905,329,301.285
I,5,2643888,vowelstep1_catch.wav,2,231,1,2945905,331,303.285
I,5,2643888,vowelstep7.wav,None,1000,1,2947905,1100,305.285
I,5,2643888,vowelstep5.wav,None,1000,1,2949905,310,307.285
I,5,2643888,sinestep1_catch.wav,2,238,1,2951905,321,309.285
I,5,2643888,silence.wav,None,1000,1,2953906,1082,311.285
I,5,2643888,sinestep7.wav,None,1000,1,2955906,329,313.285
I,5,2643888,silence.wav,None,1000,1,2957906,330,315.285
I,5,2643888,vowelstep1.wav,None,1000,1,2959906,329,317.285
I,5,2643888,sinestep7.wav,None,1000,1,2961906,330,319.285
D,6,3019238,sinestep5.wav,None,1000,1,3019256,0,1.285
D,6,3019238,vowelstep1_catch.wav,2,264,1,3021256,316,3.285
D,6,3019238,sinestep7.wav,None,1000,1,3023257,1052,5.285
D,6,3019238,vowelstep3.wav,None,1000,1,3025257,315,7.285
D,6,3019238,vowelstep3_catch.wav,2,123,1,3027257,325,9.285
D,6,3019238,vowelstep5_catch.wav,2,213,1,3029257,1201,11.285
D,6,3019238,sinestep7.wav,None,1000,1,3031257,1112,13.285
D,6,3019238,silence.wav,None,1000,1,3033257,333,15.285
D,6,3019238,vowelstep7_catch.wav,2,184,1,3035257,314,17.285
D,6,3019238,vowelstep7.wav,None,1000,1,3037257,1131,19.285
D,6,3019238,vowelstep3.wav,None,1000,1,3039257,315,21.285
D,6,3019238,vowelstep7_catch.wav,2,137,1,3041257,312,23.285
D,6,3019238,vowelstep5.wav,None,1000,1,3043257,1188,25.285
D,6,3019238,sinestep7.wav,None,1000,1,3045241,324,27.285
D,6,3019238,silence.wav,None,1000,1,3047257,332,29.285
D,6,3019238,vowelstep1.wav,None,1000,1,3049257,299,31.285
D,6,3019238,vowelstep1.wav,None,1000,1,3051257,314,33.285
D,6,3019238,vowelstep7.wav,None,1000,1,3053257,316,35.285
D,6,3019238,vowelstep3.wav,None,1000,1,3055257,311,37.285
D,6,3019238,sinestep3.wav,None,1000,1,3057257,323,39.285
D,6,3019238,sinestep1.wav,None,1000,1,3059258,324,41.285
D,6,3019238,vowelstep1.wav,None,1000,1,3061241,330,43.285
D,6,3019238,vowelstep1.wav,None,1000,1,3063241,333,45.285
D,6,3019238,sinestep7.wav,None,1000,1,3065257,332,47.285
D,6,3019238,sinestep3.wav,None,1000,1,3067257,333,49.285
D,6,3019238,vowelstep5_catch.wav,2,168,1,3069257,324,51.285
D,6,3019238,sinestep7.wav,None,1000,1,3071257,1155,53.285
D,6,3019238,vowelstep5.wav,None,1000,1,3073257,324,55.285
D,6,3019238,sinestep3.wav,None,1000,1,3075257,324,57.285
D,6,3019238,sinestep7.wav,None,1000,1,3077241,331,59.285
D,6,3019238,vowelstep3.wav,None,1000,1,3079241,331,61.285
D,6,3019238,vowelstep3.wav,None,1000,1,3081241,343,63.285
D,6,3019238,vowelstep3_catch.wav,2,195,1,3083241,342,65.285
D,6,3019238,silence.wav,None,1000,1,3085258,1148,67.285
D,6,3019238,vowelstep7.wav,None,1000,1,3087258,322,69.285
D,6,3019238,silence.wav,None,1000,1,3089257,323,71.285
D,6,3019238,sinestep1.wav,None,1000,1,3091257,330,73.285
D,6,3019238,vowelstep5.wav,None,1000,1,3093242,331,75.285
D,6,3019238,vowelstep1.wav,None,1000,1,3095242,323,77.285
D,6,3019238,sinestep7.wav,None,1000,1,3097241,341,79.285
D,6,3019238,vowelstep1.wav,None,1000,1,3099241,342,81.285
D,6,3019238,sinestep7.wav,None,1000,1,3101241,341,83.285
D,6,3019238,vowelstep7.wav,None,1000,1,3103258,321,85.285
D,6,3019238,vowelstep5.wav,None,1000,1,3105258,329,87.285
D,6,3019238,vowelstep1.wav,None,1000,1,3107258,330,89.285
D,6,3019238,sinestep5.wav,None,1000,1,3109241,342,91.285
D,6,3019238,sinestep5.wav,None,1000,1,3111242,341,93.285
D,6,3019238,vowelstep3.wav,None,1000,1,3113242,341,95.285
D,6,3019238,silence.wav,None,1000,1,3115242,341,97.285
D,6,3019238,sinestep1.wav,None,1000,1,3117242,320,99.285
D,6,3019238,sinestep1.wav,None,1000,1,3119242,327,101.285
D,6,3019238,sinestep3.wav,None,1000,1,3121258,327,103.285
D,6,3019238,vowelstep1.wav,None,1000,1,3123258,326,105.285
D,6,3019238,sinestep7.wav,None,1000,1,3125241,341,107.285
D,6,3019238,vowelstep3.wav,None,1000,1,3127241,339,109.285
D,6,3019238,silence.wav,None,1000,1,3129242,340,111.285
D,6,3019238,vowelstep5.wav,None,1000,1,3131242,349,113.285
D,6,3019238,vowelstep1.wav,None,1000,1,3133242,328,115.285
D,6,3019238,vowelstep1_catch.wav,2,191,1,3135242,327,117.285
D,6,3019238,vowelstep7.wav,None,1000,1,3137242,1137,119.285
D,6,3019238,sinestep5.wav,None,1000,1,3139258,339,121.285
D,6,3019238,vowelstep7.wav,None,1000,1,3141242,320,123.285
D,6,3019238,sinestep1.wav,None,1000,1,3143242,339,125.285
D,6,3019238,sinestep1.wav,None,1000,1,3145241,349,127.285
D,6,3019238,vowelstep3.wav,None,1000,1,3147242,348,129.285
D,6,3019238,sinestep1.wav,None,1000,1,3149242,348,131.285
D,6,3019238,silence.wav,None,1000,1,3151242,325,133.285
D,6,3019238,sinestep3.wav,None,1000,1,3153242,338,135.285
D,6,3019238,silence.wav,None,1000,1,3155242,333,137.285
D,6,3019238,vowelstep3.wav,None,1000,1,3157242,338,139.285
D,6,3019238,vowelstep5.wav,None,1000,1,3159242,346,141.285
D,6,3019238,silence.wav,None,1000,1,3161242,348,143.285
D,6,3019238,sinestep5.wav,None,1000,1,3163243,346,145.285
D,6,3019238,sinestep5.wav,None,1000,1,3165243,357,147.285
D,6,3019238,sinestep1.wav,None,1000,1,3167243,323,149.285
D,6,3019238,vowelstep5.wav,None,1000,1,3169243,333,151.285
D,6,3019238,vowelstep5.wav,None,1000,1,3171242,335,153.285
D,6,3019238,sinestep1_catch.wav,2,293,1,3173242,346,155.285
D,6,3019238,sinestep5.wav,None,1000,1,3175242,1052,157.285
D,6,3019238,vowelstep3.wav,None,1000,1,3177242,347,159.285
D,6,3019238,vowelstep7.wav,None,1000,1,3179242,357,161.285
D,6,3019238,vowelstep3.wav,None,1000,1,3181243,338,163.285
D,6,3019238,sinestep3.wav,None,1000,1,3183243,333,165.285
D,6,3019238,sinestep1.wav,None,1000,1,3185243,337,167.285
D,6,3019238,silence.wav,None,1000,1,3187243,342,169.285
D,6,3019238,sinestep1.wav,None,1000,1,3189243,346,171.285
D,6,3019238,vowelstep1.wav,None,1000,1,3191243,345,173.285
D,6,3019238,vowelstep3.wav,None,1000,1,3193242,356,175.285
D,6,3019238,silence.wav,None,1000,1,3195242,325,177.285
D,6,3019238,sinestep7.wav,None,1000,1,3197242,334,179.285
D,6,3019238,silence.wav,None,1000,1,3199243,333,181.285
D,6,3019238,vowelstep7.wav,None,1000,1,3201243,345,183.285
D,6,3019238,sinestep3.wav,None,1000,1,3203243,345,185.285
D,6,3019238,vowelstep1.wav,None,1000,1,3205243,345,187.285
D,6,3019238,sinestep7.wav,None,1000,1,3207243,345,189.285
D,6,3019238,silence.wav,None,1000,1,3209243,325,191.285
D,6,3019238,sinestep1.wav,None,1000,1,3211243,334,193.285
D,6,3019238,sinestep3.wav,None,1000,1,3213243,333,195.285
D,6,3019238,sinestep5.wav,None,1000,1,3215243,334,197.285
D,6,3019238,vowelstep3.wav,None,1000,1,3217244,341,199.285
D,6,3019238,sinestep5.wav,None,1000,1,3219243,344,201.285
D,6,3019238,sinestep5.wav,None,1000,1,3221243,342,203.285
D,6,3019238,sinestep3.wav,None,1000,1,3223243,354,205.285
D,6,3019238,sinestep3.wav,None,1000,1,3225243,332,207.285
D,6,3019238,sinestep5.wav,None,1000,1,3227243,332,209.285
D,6,3019238,sinestep3_catch.wav,2,169,1,3229243,332,211.285
D,6,3019238,vowelstep7.wav,None,1000,1,3231243,1170,213.285
D,6,3019238,sinestep1.wav,None,1000,1,3233244,341,215.285
D,6,3019238,sinestep7.wav,None,1000,1,3235244,340,217.285
D,6,3019238,vowelstep1.wav,None,1000,1,3237244,323,219.285
D,6,3019238,sinestep5.wav,None,1000,1,3239244,330,221.285
D,6,3019238,silence.wav,None,1000,1,3241244,332,223.285
D,6,3019238,sinestep5_catch.wav,2,115,1,3243243,332,225.285
D,6,3019238,sinestep5.wav,None,1000,1,3245243,1227,227.285
D,6,3019238,silence.wav,None,1000,1,3247243,339,229.285
D,6,3019238,vowelstep7.wav,None,1000,1,3249243,344,231.285
D,6,3019238,sinestep3.wav,None,1000,1,3251244,342,233.285
D,6,3019238,vowelstep5.wav,None,1000,1,3253244,331,235.285
D,6,3019238,vowelstep7.wav,None,1000,1,3255244,330,237.285
D,6,3019238,vowelstep5.wav,None,1000,1,3257244,330,239.285
D,6,3019238,silence.wav,None,1000,1,3259244,330,241.285
D,6,3019238,silence.wav,None,1000,1,3261244,341,243.285
D,6,3019238,silence.wav,None,1000,1,3263244,352,245.285
D,6,3019238,sinestep7.wav,None,1000,1,3265244,352,247.285
D,6,3019238,sinestep5.wav,None,1000,1,3267243,330,249.285
D,6,3019238,sinestep7_catch.wav,2,120,1,3269244,330,251.285
D,6,3019238,vowelstep1.wav,None,1000,1,3271244,1211,253.285
D,6,3019238,vowelstep1.wav,None,1000,1,3273244,341,255.285
D,6,3019238,vowelstep3.wav,None,1000,1,3275244,341,257.285
D,6,3019238,silence.wav,None,1000,1,3277244,339,259.285
D,6,3019238,sinestep5.wav,None,1000,1,3279244,352,261.285
D,6,3019238,vowelstep7.wav,None,1000,1,3281244,327,263.285
D,6,3019238,vowelstep3.wav,None,1000,1,3283244,330,265.285
D,6,3019238,vowelstep7.wav,None,1000,1,3285245,329,267.285
D,6,3019238,vowelstep5.wav,None,1000,1,3287245,339,269.285
D,6,3019238,sinestep1.wav,None,1000,1,3289245,339,271.285
D,6,3019238,sinestep7.wav,None,1000,1,3291244,339,273.285
D,6,3019238,sinestep3.wav,None,1000,1,3293244,350,275.285
D,6,3019238,silence.wav,None,1000,1,3295244,346,277.285
D,6,3019238,sinestep7.wav,None,1000,1,3297244,328,279.285
D,6,3019238,vowelstep5.wav,None,1000,1,3299244,327,281.285
D,6,3019238,sinestep1.wav,None,1000,1,3301244,328,283.285
D,6,3019238,vowelstep1.wav,None,1000,1,3303245,337,285.285
D,6,3019238,sinestep1.wav,None,1000,1,3305245,338,287.285
D,6,3019238,vowelstep5.wav,None,1000,1,3307245,348,289.285
D,6,3019238,silence.wav,None,1000,1,3309245,319,291.285
D,6,3019238,sinestep3.wav,None,1000,1,3311245,325,293.285
D,6,3019238,vowelstep5.wav,None,1000,1,3313245,327,295.285
D,6,3019238,silence.wav,None,1000,1,3315244,335,297.285
D,6,3019238,sinestep3.wav,None,1000,1,3317244,339,299.285
D,6,3019238,vowelstep7.wav,None,1000,1,3319244,335,301.285
D,6,3019238,sinestep7_catch.wav,2,101,1,3321245,338,303.285
D,6,3019238,sinestep5_catch.wav,2,73,1,3323245,1216,305.285
D,6,3019238,sinestep3.wav,None,1000,1,3325245,1254,307.285
D,6,3019238,vowelstep5.wav,None,1000,1,3327245,326,309.285
D,6,3019238,silence.wav,None,1000,1,3329245,326,311.285
D,6,3019238,sinestep3_catch.wav,2,121,1,3331245,337,313.285
D,6,3019238,silence.wav,None,1000,1,3333245,1216,315.285
D,6,3019238,vowelstep7.wav,None,1000,1,3335245,348,317.285
D,6,3019238,silence.wav,None,1000,1,3337245,318,319.285
F,7,3392375,sinestep1.wav,None,1000,1,3392380,0,1.285
F,7,3392375,vowelstep5.wav,None,1000,1,3394380,340,3.285
F,7,3392375,vowelstep3.wav,None,1000,1,3396379,340,5.285
F,7,3392375,sinestep5.wav,None,1000,1,3398379,341,7.285
F,7,3392375,vowelstep7.wav,None,1000,1,3400379,321,9.285
F,7,3392375,silence.wav,None,1000,1,3402379,331,11.285
F,7,3392375,vowelstep5.wav,None,1000,1,3404379,331,13.285
F,7,3392375,sinestep3.wav,None,1000,1,3406379,331,15.285
F,7,3392375,sinestep3.wav,None,1000,1,3408380,340,17.285
F,7,3392375,silence.wav,None,1000,1,3410380,340,19.285
F,7,3392375,vowelstep7.wav,None,1000,1,3412380,336,21.285
F,7,3392375,vowelstep7.wav,None,1000,1,3414380,350,23.285
F,7,3392375,vowelstep1_catch.wav,2,232,1,3416380,325,25.285
F,7,3392375,vowelstep3_catch.wav,2,96,1,3418380,1097,27.285
F,7,3392375,vowelstep1.wav,None,1000,1,3420379,1232,29.285
F,7,3392375,sinestep5.wav,None,1000,1,3422379,340,31.285
F,7,3392375,sinestep5.wav,None,1000,1,3424379,340,33.285
F,7,3392375,vowelstep7.wav,None,1000,1,3426380,350,35.285
F,7,3392375,sinestep3.wav,None,1000,1,3428380,320,37.285
F,7,3392375,sinestep7.wav,None,1000,1,3430380,325,39.285
F,7,3392375,vowelstep5_catch.wav,2,75,1,3432380,329,41.285
F,7,3392375,sinestep1.wav,None,1000,1,3434380,1252,43.285
F,7,3392375,vowelstep7_catch.wav,2,119,1,3436380,338,45.285
F,7,3392375,vowelstep3.wav,None,1000,1,3438380,1220,47.285
F,7,3392375,sinestep1.wav,None,1000,1,3440380,338,49.285
F,7,3392375,sinestep7.wav,None,1000,1,3442380,348,51.285
F,7,3392375,silence.wav,None,1000,1,3444380,327,53.285
F,7,3392375,sinestep7.wav,None,1000,1,3446380,327,55.285
F,7,3392375,vowelstep1.wav,None,1000,1,3448380,327,57.285
F,7,3392375,vowelstep3.wav,None,1000,1,3450380,337,59.285
F,7,3392375,vowelstep7_catch.wav,2,114,1,3452380,338,61.285
F,7,3392375,sinestep5.wav,None,1000,1,3454380,1222,63.285
F,7,3392375,sinestep3.wav,None,1000,1,3456380,347,65.285
F,7,3392375,vowelstep3.wav,None,1000,1,3458380,327,67.285
F,7,3392375,silence.wav,None,1000,1,3460381,327,69.285
F,7,3392375,vowelstep1.wav,None,1000,1,3462381,322,71.285
F,7,3392375,vowelstep1.wav,None,1000,1,3464381,336,73.285
F,7,3392375,vowelstep5_catch.wav,2,165,1,3466381,335,75.285
F,7,3392375,silence.wav,None,1000,1,3468380,1171,77.285
F,7,3392375,vowelstep3.wav,None,1000,1,3470380,347,79.285
F,7,3392375,vowelstep5.wav,None,1000,1,3472380,347,81.285
F,7,3392375,vowelstep3_catch.wav,2,103,1,3474380,326,83.285
F,7,3392375,vowelstep3.wav,None,1000,1,3476380,1253,85.285
F,7,3392375,sinestep7.wav,None,1000,1,3478381,333,87.285
F,7,3392375,vowelstep1.wav,None,1000,1,3480381,336,89.285
F,7,3392375,sinestep1.wav,None,1000,1,3482381,334,91.285
F,7,3392375,vowelstep1_catch.wav,2,79,1,3484381,335,93.285
F,7,3392375,vowelstep5.wav,None,1000,1,3486381,1265,95.285
F,7,3392375,sinestep7.wav,None,1000,1,3488381,345,97.285
F,7,3392375,vowelstep7.wav,None,1000,1,3490381,355,99.285
F,7,3392375,vowelstep3.wav,None,1000,1,3492381,329,101.285
F,7,3392375,sinestep3.wav,None,1000,1,3494380,331,103.285
F,7,3392375,silence.wav,None,1000,1,3496381,334,105.285
F,7,3392375,sinestep1.wav,None,1000,1,3498381,342,107.285
F,7,3392375,sinestep1.wav,None,1000,1,3500381,344,109.285
F,7,3392375,silence.wav,None,1000,1,3502381,344,111.285
F,7,3392375,sinestep7.wav,None,1000,1,3504381,353,113.285
F,7,3392375,vowelstep3.wav,None,1000,1,3506381,353,115.285
F,7,3392375,sinestep3.wav,None,1000,1,3508381,329,117.285
F,7,3392375,vowelstep3.wav,None,1000,1,3510381,331,119.285
F,7,3392375,vowelstep7.wav,None,1000,1,3512381,332,121.285
F,7,3392375,vowelstep7.wav,None,1000,1,3514382,342,123.285
F,7,3392375,vowelstep5.wav,None,1000,1,3516381,340,125.285
F,7,3392375,sinestep1.wav,None,1000,1,3518381,352,127.285
F,7,3392375,silence.wav,None,1000,1,3520381,323,129.285
F,7,3392375,sinestep1.wav,None,1000,1,3522381,332,131.285
F,7,3392375,sinestep3.wav,None,1000,1,3524381,332,133.285
F,7,3392375,sinestep1_catch.wav,2,108,1,3526381,339,135.285
F,7,3392375,sinestep3.wav,None,1000,1,3528381,1234,137.285
F,7,3392375,sinestep3.wav,None,1000,1,3530382,341,139.285
F,7,3392375,silence.wav,None,1000,1,3532382,340,141.285
F,7,3392375,silence.wav,None,1000,1,3534382,352,143.285
F,7,3392375,sinestep7.wav,None,1000,1,3536382,331,145.285
F,7,3392375,sinestep5.wav,None,1000,1,3538382,332,147.285
F,7,3392375,vowelstep1.wav,None,1000,1,3540381,327,149.285
F,7,3392375,sinestep7.wav,None,1000,1,3542381,341,151.285
F,7,3392375,silence.wav,None,1000,1,3544381,336,153.285
F,7,3392375,sinestep3_catch.wav,2,127,1,3546381,352,155.285
F,7,3392375,vowelstep5.wav,None,1000,1,3548382,1223,157.285
F,7,3392375,sinestep3.wav,None,1000,1,3550382,331,159.285
F,7,3392375,vowelstep5.wav,None,1000,1,3552382,330,161.285
F,7,3392375,sinestep3.wav,None,1000,1,3554382,331,163.285
F,7,3392375,vowelstep3.wav,None,1000,1,3556382,337,165.285
F,7,3392375,vowelstep1.wav,None,1000,1,3558382,339,167.285
F,7,3392375,sinestep5.wav,None,1000,1,3560382,339,169.285
F,7,3392375,vowelstep5.wav,None,1000,1,3562382,351,171.285
F,7,3392375,vowelstep1.wav,None,1000,1,3564381,319,173.285
F,7,3392375,vowelstep1.wav,None,1000,1,3566382,330,175.285
F,7,3392375,sinestep7.wav,None,1000,1,3568382,339,177.285
F,7,3392375,vowelstep1.wav,None,1000,1,3570382,340,179.285
F,7,3392375,sinestep5.wav,None,1000,1,3572382,336,181.285
F,7,3392375,vowelstep7.wav,None,1000,1,3574382,340,183.285
F,7,3392375,sinestep1.wav,None,1000,1,3576382,334,185.285
F,7,3392375,vowelstep7.wav,None,1000,1,3578382,330,187.285
F,7,3392375,sinestep5.wav,None,1000,1,3580382,329,189.285
F,7,3392375,vowelstep5.wav,None,1000,1,3582382,329,191.285
F,7,3392375,silence.wav,None,1000,1,3584383,339,193.285
F,7,3392375,sinestep7.wav,None,1000,1,3586383,339,195.285
F,7,3392375,vowelstep5.wav,None,1000,1,3588383,335,197.285
F,7,3392375,vowelstep7.wav,None,1000,1,3590382,317,199.285
F,7,3392375,silence.wav,None,1000,1,3592382,328,201.285
F,7,3392375,vowelstep1.wav,None,1000,1,3594382,327,203.285
F,7,3392375,vowelstep7.wav,None,1000,1,3596382,329,205.285
F,7,3392375,vowelstep7.wav,None,1000,1,3598382,339,207.285
F,7,3392375,vowelstep3.wav,None,1000,1,3600383,338,209.285
F,7,3392375,vowelstep3.wav,None,1000,1,3602383,337,211.285
F,7,3392375,silence.wav,None,1000,1,3604383,333,213.285
F,7,3392375,sinestep7.wav,None,1000,1,3606383,326,215.285
F,7,3392375,sinestep1.wav,None,1000,1,3608383,325,217.285
F,7,3392375,silence.wav,None,1000,1,3610383,328,219.285
F,7,3392375,vowelstep1.wav,None,1000,1,3612382,327,221.285
F,7,3392375,sinestep5_catch.wav,2,35,1,3614382,336,223.285
F,7,3392375,sinestep1.wav,None,1000,1,3616382,1303,225.285
F,7,3392375,silence.wav,None,1000,1,3618383,347,227.285
F,7,3392375,sinestep7.wav,None,1000,1,3620383,323,229.285
F,7,3392375,sinestep7.wav,None,1000,1,3622383,326,231.285
F,7,3392375,silence.wav,None,1000,1,3624383,321,233.285
F,7,3392375,vowelstep5.wav,None,1000,1,3626383,336,235.285
F,7,3392375,sinestep7.wav,None,1000,1,3628383,334,237.285
F,7,3392375,sinestep5.wav,None,1000,1,3630383,336,239.285
F,7,3392375,sinestep5.wav,None,1000,1,3632383,337,241.285
F,7,3392375,silence.wav,None,1000,1,3634383,316,243.285
F,7,3392375,vowelstep3.wav,None,1000,1,3636384,323,245.285
F,7,3392375,vowelstep3.wav,None,1000,1,3638383,326,247.285
F,7,3392375,silence.wav,None,1000,1,3640383,325,249.285
F,7,3392375,sinestep1.wav,None,1000,1,3642383,336,251.285
F,7,3392375,sinestep1.wav,None,1000,1,3644383,335,253.285
F,7,3392375,vowelstep5.wav,None,1000,1,3646383,336,255.285
F,7,3392375,silence.wav,None,1000,1,3648383,315,257.285
F,7,3392375,sinestep5.wav,None,1000,1,3650383,325,259.285
F,7,3392375,sinestep5.wav,None,1000,1,3652383,325,261.285
F,7,3392375,sinestep5.wav,None,1000,1,3654384,320,263.285
F,7,3392375,sinestep7.wav,None,1000,1,3656384,335,265.285
F,7,3392375,sinestep7_catch.wav,2,140,1,3658384,334,267.285
F,7,3392375,sinestep7_catch.wav,2,162,1,3660384,1193,269.285
F,7,3392375,sinestep1.wav,None,1000,1,3662383,1152,271.285
F,7,3392375,vowelstep7.wav,None,1000,1,3664383,324,273.285
F,7,3392375,sinestep3.wav,None,1000,1,3666383,325,275.285
F,7,3392375,sinestep3.wav,None,1000,1,3668383,335,277.285
F,7,3392375,silence.wav,None,1000,1,3670384,333,279.285
F,7,3392375,sinestep5_catch.wav,2,129,1,3672384,330,281.285
F,7,3392375,sinestep5.wav,None,1000,1,3674384,1203,283.285
F,7,3392375,silence.wav,None,1000,1,3676384,344,285.285
F,7,3392375,vowelstep5.wav,None,1000,1,3678384,323,287.285
F,7,3392375,silence.wav,None,1000,1,3680384,323,289.285
F,7,3392375,sinestep1.wav,None,1000,1,3682384,325,291.285
F,7,3392375,sinestep3.wav,None,1000,1,3684384,329,293.285
F,7,3392375,vowelstep3.wav,None,1000,1,3686383,332,295.285
F,7,3392375,silence.wav,None,1000,1,3688384,329,297.285
F,7,3392375,sinestep5.wav,None,1000,1,3690384,342,299.285
F,7,3392375,vowelstep5.wav,None,1000,1,3692384,322,301.285
F,7,3392375,vowelstep5.wav,None,1000,1,3694384,322,303.285
F,7,3392375,vowelstep1.wav,None,1000,1,3696384,321,305.285
F,7,3392375,sinestep3.wav,None,1000,1,3698384,332,307.285
F,7,3392375,silence.wav,None,1000,1,3700384,329,309.285
F,7,3392375,sinestep3_catch.wav,2,116,1,3702384,330,311.285
F,7,3392375,vowelstep1.wav,None,1000,1,3704384,1195,313.285
F,7,3392375,vowelstep7.wav,None,1000,1,3706385,321,315.285
F,7,3392375,vowelstep7.wav,None,1000,1,3708385,321,317.285
F,7,3392375,vowelstep1.wav,None,1000,1,3710384,322,319.285
G,8,3764916,vowelstep3.wav,None,1000,1,3764935,0,1.285
G,8,3764916,vowelstep3.wav,None,1000,1,3766935,329,3.285
G,8,3764916,vowelstep7.wav,None,1000,1,3768935,329,5.285
G,8,3764916,vowelstep3.wav,None,1000,1,3770935,324,7.285
G,8,3764916,sinestep5.wav,None,1000,1,3772935,320,9.285
G,8,3764916,sinestep1_catch.wav,2,125,1,3774919,318,11.285
G,8,3764916,silence.wav,None,1000,1,3776919,1213,13.285
G,8,3764916,silence.wav,None,1000,1,3778919,349,15.285
G,8,3764916,vowelstep7.wav,None,1000,1,3780936,329,17.285
G,8,3764916,vowelstep1.wav,None,1000,1,3782935,328,19.285
G,8,3764916,silence.wav,None,1000,1,3784935,335,21.285
G,8,3764916,sinestep1.wav,None,1000,1,3786935,308,23.285
G,8,3764916,vowelstep7.wav,None,1000,1,3788935,317,25.285
G,8,3764916,sinestep5.wav,None,1000,1,3790918,318,27.285
G,8,3764916,sinestep5.wav,None,1000,1,3792919,348,29.285
G,8,3764916,sinestep3.wav,None,1000,1,3794919,347,31.285
G,8,3764916,vowelstep3.wav,None,1000,1,3796919,347,33.285
G,8,3764916,silence.wav,None,1000,1,3798936,327,35.285
G,8,3764916,vowelstep1.wav,None,1000,1,3800936,337,37.285
G,8,3764916,sinestep7.wav,None,1000,1,3802936,317,39.285
G,8,3764916,vowelstep5.wav,None,1000,1,3804936,317,41.285
G,8,3764916,vowelstep3.wav,None,1000,1,3806919,317,43.285
G,8,3764916,sinestep1.wav,None,1000,1,3808919,327,45.285
G,8,3764916,sinestep7.wav,None,1000,1,3810920,347,47.285
G,8,3764916,sinestep1.wav,None,1000,1,3812920,356,49.285
G,8,3764916,sinestep5.wav,None,1000,1,3814919,336,51.285
G,8,3764916,vowelstep1.wav,None,1000,1,3816919,336,53.285
G,8,3764916,silence.wav,None,1000,1,3818936,334,55.285
G,8,3764916,sinestep5.wav,None,1000,1,3820936,328,57.285
G,8,3764916,vowelstep1.wav,None,1000,1,3822919,325,59.285
G,8,3764916,vowelstep3.wav,None,1000,1,3824919,346,61.285
G,8,3764916,sinestep3.wav,None,1000,1,3826919,355,63.285
G,8,3764916,sinestep1.wav,None,1000,1,3828920,335,65.285
G,8,3764916,vowelstep5.wav,None,1000,1,3830920,335,67.285
G,8,3764916,vowelstep3.wav,None,1000,1,3832920,330,69.285
G,8,3764916,vowelstep5.wav,None,1000,1,3834920,345,71.285
G,8,3764916,vowelstep7.wav,None,1000,1,3836936,339,73.285
G,8,3764916,vowelstep5.wav,None,1000,1,3838919,324,75.285
G,8,3764916,vowelstep5.wav,None,1000,1,3840919,353,77.285
G,8,3764916,sinestep3.wav,None,1000,1,3842919,334,79.285
G,8,3764916,sinestep3_catch.wav,2,161,1,3844920,333,81.285
G,8,3764916,sinestep5_catch.wav,2,125,1,3846920,1172,83.285
G,8,3764916,sinestep7.wav,None,1000,1,3848920,1214,85.285
G,8,3764916,sinestep7_catch.wav,2,107,1,3850920,345,87.285
G,8,3764916,sinestep7.wav,None,1000,1,3852920,1231,89.285
G,8,3764916,vowelstep1.wav,None,1000,1,3854920,342,91.285
G,8,3764916,vowelstep7.wav,None,1000,1,3856920,353,93.285
G,8,3764916,vowelstep3.wav,None,1000,1,3858920,332,95.285
G,8,3764916,sinestep3.wav,None,1000,1,3860920,333,97.285
G,8,3764916,sinestep1.wav,None,1000,1,3862920,333,99.285
G,8,3764916,sinestep1.wav,None,1000,1,3864920,338,101.285
G,8,3764916,sinestep5.wav,None,1000,1,3866920,341,103.285
G,8,3764916,vowelstep7.wav,None,1000,1,3868920,351,105.285
G,8,3764916,silence.wav,None,1000,1,3870920,323,107.285
G,8,3764916,sinestep3.wav,None,1000,1,3872920,332,109.285
G,8,3764916,vowelstep1.wav,None,1000,1,3874920,333,111.285
G,8,3764916,sinestep3.wav,None,1000,1,3876920,343,113.285
G,8,3764916,sinestep3.wav,None,1000,1,3878920,343,115.285
G,8,3764916,sinestep7.wav,None,1000,1,3880921,342,117.285
G,8,3764916,silence.wav,None,1000,1,3882921,341,119.285
G,8,3764916,vowelstep5.wav,None,1000,1,3884937,352,121.285
G,8,3764916,sinestep1_catch.wav,2,182,1,3886920,302,123.285
G,8,3764916,silence.wav,None,1000,1,3888920,1146,125.285
G,8,3764916,sinestep5.wav,None,1000,1,3890920,332,127.285
G,8,3764916,sinestep7.wav,None,1000,1,3892920,341,129.285
G,8,3764916,sinestep3.wav,None,1000,1,3894920,342,131.285
G,8,3764916,sinestep3.wav,None,1000,1,3896920,342,133.285
G,8,3764916,vowelstep5.wav,None,1000,1,3898921,317,135.285
G,8,3764916,sinestep3.wav,None,1000,1,3900921,331,137.285
G,8,3764916,sinestep3_catch.wav,2,190,1,3902921,329,139.285
G,8,3764916,vowelstep1.wav,None,1000,1,3904921,1141,141.285
G,8,3764916,vowelstep1.wav,None,1000,1,3906921,341,143.285
G,8,3764916,sinestep5.wav,None,1000,1,3908921,340,145.285
G,8,3764916,silence.wav,None,1000,1,3910920,341,147.285
G,8,3764916,sinestep3.wav,None,1000,1,3912920,321,149.285
G,8,3764916,silence.wav,None,1000,1,3914921,327,151.285
G,8,3764916,vowelstep3.wav,None,1000,1,3916921,331,153.285
G,8,3764916,sinestep5.wav,None,1000,1,3918921,330,155.285
G,8,3764916,vowelstep7.wav,None,1000,1,3920921,339,157.285
G,8,3764916,silence.wav,None,1000,1,3922921,338,159.285
G,8,3764916,sinestep5_catch.wav,2,132,1,3924921,339,161.285
G,8,3764916,vowelstep5.wav,None,1000,1,3926921,1217,163.285
G,8,3764916,silence.wav,None,1000,1,3928921,326,165.285
G,8,3764916,vowelstep7.wav,None,1000,1,3930921,328,167.285
G,8,3764916,vowelstep1.wav,None,1000,1,3932922,328,169.285
G,8,3764916,vowelstep1.wav,None,1000,1,3934921,328,171.285
G,8,3764916,vowelstep1.wav,None,1000,1,3936921,338,173.285
G,8,3764916,sinestep5.wav,None,1000,1,3938921,338,175.285
G,8,3764916,vowelstep3.wav,None,1000,1,3940921,349,177.285
G,8,3764916,sinestep1.wav,None,1000,1,3942921,318,179.285
G,8,3764916,vowelstep1.wav,None,1000,1,3944921,328,181.285
G,8,3764916,sinestep1.wav,None,1000,1,3946921,325,183.285
G,8,3764916,sinestep7.wav,None,1000,1,3948921,338,185.285
G,8,3764916,sinestep7.wav,None,1000,1,3950922,337,187.285
G,8,3764916,sinestep3.wav,None,1000,1,3952922,336,189.285
G,8,3764916,sinestep5.wav,None,1000,1,3954922,348,191.285
G,8,3764916,silence.wav,None,1000,1,3956922,328,193.285
G,8,3764916,sinestep7_catch.wav,2,237,1,3958921,327,195.285
G,8,3764916,vowelstep7_catch.wav,2,155,1,3960921,1090,197.285
G,8,3764916,sinestep7.wav,None,1000,1,3962921,1168,199.285
G,8,3764916,silence.wav,None,1000,1,3964921,337,201.285
G,8,3764916,sinestep7.wav,None,1000,1,3966921,335,203.285
G,8,3764916,sinestep3.wav,None,1000,1,3968922,344,205.285
G,8,3764916,vowelstep7.wav,None,1000,1,3970922,316,207.285
G,8,3764916,sinestep1.wav,None,1000,1,3972922,325,209.285
G,8,3764916,silence.wav,None,1000,1,3974922,326,211.285
G,8,3764916,silence.wav,None,1000,1,3976922,332,213.285
G,8,3764916,vowelstep7.wav,None,1000,1,3978922,334,215.285
G,8,3764916,vowelstep5.wav,None,1000,1,3980922,335,217.285
G,8,3764916,sinestep7.wav,None,1000,1,3982921,335,219.285
G,8,3764916,vowelstep5.wav,None,1000,1,3984922,325,221.285
G,8,3764916,vowelstep5_catch.wav,2,190,1,3986922,324,223.285
G,8,3764916,vowelstep7.wav,None,1000,1,3988922,1137,225.285
G,8,3764916,silence.wav,None,1000,1,3990922,325,227.285
G,8,3764916,silence.wav,None,1000,1,3992922,335,229.285
G,8,3764916,sinestep1.wav,None,1000,1,3994922,332,231.285
G,8,3764916,silence.wav,None,1000,1,3996922,343,233.285
G,8,3764916,vowelstep7.wav,None,1000,1,3998922,345,235.285
G,8,3764916,vowelstep5.wav,None,1000,1,4000922,323,237.285
G,8,3764916,vowelstep3.wav,None,1000,1,4002923,325,239.285
G,8,3764916,vowelstep3_catch.wav,2,8,1,4004923,324,241.285
G,8,3764916,sinestep1.wav,None,1000,1,4006923,1324,243.285
G,8,3764916,silence.wav,None,1000,1,4008922,334,245.285
G,8,3764916,sinestep7.wav,None,1000,1,4010922,331,247.285
G,8,3764916,sinestep1.wav,None,1000,1,4012922,314,249.285
G,8,3764916,sinestep3.wav,None,1000,1,4014922,323,251.285
G,8,3764916,vowelstep3.wav,None,1000,1,4016922,324,253.285
G,8,3764916,vowelstep1_catch.wav,2,112,1,4018922,334,255.285
G,8,3764916,sinestep7.wav,None,1000,1,4020923,1221,257.285
G,8,3764916,silence.wav,None,1000,1,4022923,333,259.285
G,8,3764916,sinestep5.wav,None,1000,1,4024923,329,261.285
G,8,3764916,sinestep5.wav,None,1000,1,4026923,311,263.285
G,8,3764916,vowelstep5.wav,None,1000,1,4028923,320,265.285
G,8,3764916,sinestep5.wav,None,1000,1,4030923,324,267.285
G,8,3764916,sinestep7.wav,None,1000,1,4032922,315,269.285
G,8,3764916,silence.wav,None,1000,1,4034922,333,271.285
G,8,3764916,vowelstep7_catch.wav,2,154,1,4036922,332,273.285
G,8,3764916,vowelstep5.wav,None,1000,1,4038923,1177,275.285
G,8,3764916,silence.wav,None,1000,1,4040923,338,277.285
G,8,3764916,sinestep3.wav,None,1000,1,4042923,320,279.285
G,8,3764916,vowelstep5.wav,None,1000,1,4044923,340,281.285
G,8,3764916,silence.wav,None,1000,1,4046923,352,283.285
G,8,3764916,vowelstep1.wav,None,1000,1,4048923,330,285.285
G,8,3764916,sinestep1.wav,None,1000,1,4050923,332,287.285
G,8,3764916,vowelstep3.wav,None,1000,1,4052923,331,289.285
G,8,3764916,vowelstep7.wav,None,1000,1,4054924,341,291.285
G,8,3764916,vowelstep7.wav,None,1000,1,4056923,341,293.285
G,8,3764916,sinestep1.wav,None,1000,1,4058923,337,295.285
G,8,3764916,vowelstep5.wav,None,1000,1,4060923,349,297.285
G,8,3764916,silence.wav,None,1000,1,4062923,331,299.285
G,8,3764916,sinestep1.wav,None,1000,1,4064923,330,301.285
G,8,3764916,vowelstep7.wav,None,1000,1,4066923,331,303.285
G,8,3764916,vowelstep5_catch.wav,2,72,1,4068923,341,305.285
G,8,3764916,vowelstep3.wav,None,1000,1,4070923,1267,307.285
G,8,3764916,vowelstep3_catch.wav,2,113,1,4072924,340,309.285
G,8,3764916,sinestep7.wav,None,1000,1,4074924,1235,311.285
G,8,3764916,sinestep5.wav,None,1000,1,4076924,330,313.285
G,8,3764916,vowelstep1.wav,None,1000,1,4078924,330,315.285
G,8,3764916,vowelstep3.wav,None,1000,1,4080923,328,317.285
G,8,3764916,vowelstep1.wav,None,1000,1,4082923,339,319.285
C,9,4138106,sinestep1.wav,None,1000,1,4138124,0,1.285
C,9,4138106,vowelstep1.wav,None,1000,1,4140124,315,3.285
C,9,4138106,sinestep1.wav,None,1000,1,4142125,316,5.285
C,9,4138106,sinestep1.wav,None,1000,1,4144125,311,7.285
C,9,4138106,vowelstep1.wav,None,1000,1,4146125,326,9.285
C,9,4138106,sinestep1.wav,None,1000,1,4148125,325,11.285
C,9,4138106,sinestep7.wav,None,1000,1,4150125,325,13.285
C,9,4138106,vowelstep7.wav,None,1000,1,4152125,335,15.285
C,9,4138106,vowelstep3.wav,None,1000,1,4154124,315,17.285
C,9,4138106,vowelstep5.wav,None,1000,1,4156124,315,19.285
C,9,4138106,silence.wav,None,1000,1,4158124,312,21.285
C,9,4138106,sinestep3.wav,None,1000,1,4160125,323,23.285
C,9,4138106,vowelstep5.wav,None,1000,1,4162125,325,25.285
C,9,4138106,sinestep1.wav,None,1000,1,4164125,321,27.285
C,9,4138106,vowelstep1.wav,None,1000,1,4166125,326,29.285
C,9,4138106,vowelstep7.wav,None,1000,1,4168125,313,31.285
C,9,4138106,vowelstep3.wav,None,1000,1,4170125,315,33.285
C,9,4138106,sinestep1.wav,None,1000,1,4172125,314,35.285
C,9,4138106,sinestep5.wav,None,1000,1,4174125,325,37.285
C,9,4138106,silence.wav,None,1000,1,4176125,321,39.285
C,9,4138106,vowelstep7.wav,None,1000,1,4178125,325,41.285
C,9,4138106,vowelstep5.wav,None,1000,1,4180109,322,43.285
C,9,4138106,sinestep5.wav,None,1000,1,4182125,333,45.285
C,9,4138106,silence.wav,None,1000,1,4184125,314,47.285
C,9,4138106,sinestep5.wav,None,1000,1,4186125,313,49.285
C,9,4138106,sinestep1.wav,None,1000,1,4188125,313,51.285
C,9,4138106,silence.wav,None,1000,1,4190125,319,53.285
C,9,4138106,vowelstep1.wav,None,1000,1,4192125,324,55.285
C,9,4138106,vowelstep1.wav,None,1000,1,4194125,322,57.285
C,9,4138106,sinestep1.wav,None,1000,1,4196109,312,59.285
C,9,4138106,silence.wav,None,1000,1,4198109,333,61.285
C,9,4138106,vowelstep5.wav,None,1000,1,4200109,342,63.285
C,9,4138106,vowelstep3.wav,None,1000,1,4202125,342,65.285
C,9,4138106,vowelstep3.wav,None,1000,1,4204125,323,67.285
C,9,4138106,vowelstep7.wav,None,1000,1,4206125,322,69.285
C,9,4138106,silence.wav,None,1000,1,4208125,332,71.285
C,9,4138106,vowelstep3.wav,None,1000,1,4210125,312,73.285
C,9,4138106,silence.wav,None,1000,1,4212109,312,75.285
C,9,4138106,sinestep5.wav,None,1000,1,4214109,341,77.285
C,9,4138106,vowelstep7.wav,None,1000,1,4216109,341,79.285
C,9,4138106,vowelstep1_catch.wav,2,24,1,4218109,342,81.285
C,9,4138106,vowelstep3.wav,None,1000,1,4220126,1317,83.285
C,9,4138106,sinestep7.wav,None,1000,1,4222126,332,85.285
C,9,4138106,vowelstep3.wav,None,1000,1,4224126,297,87.285
C,9,4138106,sinestep1.wav,None,1000,1,4226125,311,89.285
C,9,4138106,sinestep7.wav,None,1000,1,4228109,310,91.285
C,9,4138106,sinestep7.wav,None,1000,1,4230110,341,93.285
C,9,4138106,sinestep3.wav,None,1000,1,4232110,340,95.285
C,9,4138106,vowelstep3_catch.wav,2,121,1,4234109,351,97.285
C,9,4138106,sinestep5.wav,None,1000,1,4236109,1228,99.285
C,9,4138106,sinestep5.wav,None,1000,1,4238126,328,101.285
C,9,4138106,vowelstep3.wav,None,1000,1,4240126,308,103.285
C,9,4138106,vowelstep5.wav,None,1000,1,4242126,310,105.285
C,9,4138106,sinestep1.wav,None,1000,1,4244109,309,107.285
C,9,4138106,sinestep3.wav,None,1000,1,4246109,340,109.285
C,9,4138106,vowelstep5.wav,None,1000,1,4248110,341,111.285
C,9,4138106,vowelstep7.wav,None,1000,1,4250110,319,113.285
C,9,4138106,vowelstep1.wav,None,1000,1,4252110,329,115.285
C,9,4138106,sinestep7.wav,None,1000,1,4254110,329,117.285
C,9,4138106,sinestep3.wav,None,1000,1,4256110,329,119.285
C,9,4138106,vowelstep1.wav,None,1000,1,4258126,339,121.285
C,9,4138106,vowelstep1.wav,None,1000,1,4260109,319,123.285
C,9,4138106,sinestep3.wav,None,1000,1,4262109,339,125.285
C,9,4138106,silence.wav,None,1000,1,4264126,339,127.285
C,9,4138106,silence.wav,None,1000,1,4266110,293,129.285
C,9,4138106,vowelstep5_catch.wav,2,94,1,4268110,327,131.285
C,9,4138106,vowelstep5.wav,None,1000,1,4270110,1234,133.285
C,9,4138106,silence.wav,None,1000,1,4272110,327,135.285
C,9,4138106,sinestep1.wav,None,1000,1,4274110,337,137.285
C,9,4138106,vowelstep7.wav,None,1000,1,4276110,339,139.285
C,9,4138106,sinestep7.wav,None,1000,1,4278110,318,141.285
C,9,4138106,silence.wav,None,1000,1,4280110,328,143.285
C,9,4138106,silence.wav,None,1000,1,4282110,327,145.285
C,9,4138106,sinestep7.wav,None,1000,1,4284110,327,147.285
C,9,4138106,vowelstep1.wav,None,1000,1,4286110,336,149.285
C,9,4138106,vowelstep5.wav,None,1000,1,4288110,336,151.285
C,9,4138106,vowelstep5.wav,None,1000,1,4290110,337,153.285
C,9,4138106,vowelstep7.wav,None,1000,1,4292110,337,155.285
C,9,4138106,sinestep7.wav,None,1000,1,4294110,327,157.285
C,9,4138106,vowelstep1.wav,None,1000,1,4296110,327,159.285
C,9,4138106,vowelstep3.wav,None,1000,1,4298110,326,161.285
C,9,4138106,sinestep5.wav,None,1000,1,4300111,327,163.285
C,9,4138106,sinestep7.wav,None,1000,1,4302111,332,165.285
C,9,4138106,sinestep1.wav,None,1000,1,4304111,336,167.285
C,9,4138106,sinestep7.wav,None,1000,1,4306110,341,169.285
C,9,4138106,sinestep3.wav,None,1000,1,4308110,326,171.285
C,9,4138106,silence.wav,None,1000,1,4310110,324,173.285
C,9,4138106,vowelstep7.wav,None,1000,1,4312110,326,175.285
C,9,4138106,sinestep7.wav,None,1000,1,4314110,336,177.285
C,9,4138106,sinestep5.wav,None,1000,1,4316110,336,179.285
C,9,4138106,vowelstep7.wav,None,1000,1,4318111,333,181.285
C,9,4138106,vowelstep5.wav,None,1000,1,4320111,336,183.285
C,9,4138106,vowelstep3.wav,None,1000,1,4322111,310,185.285
C,9,4138106,vowelstep7_catch.wav,2,60,1,4324111,325,187.285
C,9,4138106,vowelstep3.wav,None,1000,1,4326111,1263,189.285
C,9,4138106,vowelstep5.wav,None,1000,1,4328111,325,191.285
C,9,4138106,vowelstep7.wav,None,1000,1,4330110,335,193.285
C,9,4138106,vowelstep7_catch.wav,2,75,1,4332110,335,195.285
C,9,4138106,vowelstep5_catch.wav,2,41,1,4334110,1259,197.285
C,9,4138106,sinestep5.wav,None,1000,1,4336111,1302,199.285
C,9,4138106,sinestep3.wav,None,1000,1,4338111,325,201.285
C,9,4138106,vowelstep3_catch.wav,2,76,1,4340111,324,203.285
C,9,4138106,vowelstep1_catch.wav,2,55,1,4342111,1248,205.285
C,9,4138106,vowelstep5.wav,None,1000,1,4344111,1278,207.285
C,9,4138106,vowelstep1.wav,None,1000,1,4346111,334,209.285
C,9,4138106,sinestep1_catch.wav,2,246,1,4348111,344,211.285
C,9,4138106,sinestep3_catch.wav,2,81,1,4350111,1066,213.285
C,9,4138106,sinestep1.wav,None,1000,1,4352112,1239,215.285
C,9,4138106,vowelstep3.wav,None,1000,1,4354111,322,217.285
C,9,4138106,sinestep3.wav,None,1000,1,4356111,352,219.285
C,9,4138106,vowelstep5.wav,None,1000,1,4358111,333,221.285
C,9,4138106,sinestep7.wav,None,1000,1,4360111,332,223.285
C,9,4138106,sinestep1.wav,None,1000,1,4362111,333,225.285
C,9,4138106,sinestep5_catch.wav,2,96,1,4364111,342,227.285
C,9,4138106,vowelstep7.wav,None,1000,1,4366111,1222,229.285
C,9,4138106,vowelstep3.wav,None,1000,1,4368111,351,231.285
C,9,4138106,silence.wav,None,1000,1,4370112,322,233.285
C,9,4138106,vowelstep1.wav,None,1000,1,4372112,330,235.285
C,9,4138106,sinestep5.wav,None,1000,1,4374112,331,237.285
C,9,4138106,sinestep1.wav,None,1000,1,4376112,342,239.285
C,9,4138106,vowelstep7.wav,None,1000,1,4378111,341,241.285
C,9,4138106,sinestep3.wav,None,1000,1,4380111,322,243.285
C,9,4138106,sinestep3.wav,None,1000,1,4382111,338,245.285
C,9,4138106,sinestep5.wav,None,1000,1,4384111,349,247.285
C,9,4138106,vowelstep3.wav,None,1000,1,4386111,331,249.285
C,9,4138106,sinestep3.wav,None,1000,1,4388112,330,251.285
C,9,4138106,silence.wav,None,1000,1,4390112,331,253.285
C,9,4138106,sinestep3.wav,None,1000,1,4392112,341,255.285
C,9,4138106,vowelstep1.wav,None,1000,1,4394112,340,257.285
C,9,4138106,silence.wav,None,1000,1,4396112,341,259.285
C,9,4138106,vowelstep1.wav,None,1000,1,4398112,351,261.285
C,9,4138106,silence.wav,None,1000,1,4400112,330,263.285
C,9,4138106,sinestep7.wav,None,1000,1,4402111,332,265.285
C,9,4138106,sinestep3.wav,None,1000,1,4404111,330,267.285
C,9,4138106,vowelstep1.wav,None,1000,1,4406112,339,269.285
C,9,4138106,sinestep7.wav,None,1000,1,4408112,340,271.285
C,9,4138106,sinestep7_catch.wav,2,158,1,4410112,339,273.285
C,9,4138106,vowelstep5.wav,None,1000,1,4412112,1190,275.285
C,9,4138106,silence.wav,None,1000,1,4414112,319,277.285
C,9,4138106,silence.wav,None,1000,1,4416112,325,279.285
C,9,4138106,sinestep3.wav,None,1000,1,4418112,329,281.285
C,9,4138106,vowelstep7.wav,None,1000,1,4420112,338,283.285
C,9,4138106,sinestep5.wav,None,1000,1,4422113,339,285.285
C,9,4138106,sinestep5.wav,None,1000,1,4424113,338,287.285
C,9,4138106,vowelstep3.wav,None,1000,1,4426112,338,289.285
C,9,4138106,sinestep3.wav,None,1000,1,4428112,328,291.285
C,9,4138106,silence.wav,None,1000,1,4430112,325,293.285
C,9,4138106,silence.wav,None,1000,1,4432112,327,295.285
C,9,4138106,vowelstep7.wav,None,1000,1,4434112,329,297.285
C,9,4138106,silence.wav,None,1000,1,4436112,338,299.285
C,9,4138106,vowelstep5.wav,None,1000,1,4438112,338,301.285
C,9,4138106,sinestep5.wav,None,1000,1,4440113,348,303.285
C,9,4138106,silence.wav,None,1000,1,4442113,317,305.285
C,9,4138106,silence.wav,None,1000,1,4444113,328,307.285
C,9,4138106,silence.wav,None,1000,1,4446113,324,309.285
C,9,4138106,sinestep7_catch.wav,2,147,1,4448113,328,311.285
C,9,4138106,sinestep7.wav,None,1000,1,4450113,1185,313.285
C,9,4138106,sinestep5_catch.wav,2,112,1,4452112,337,315.285
C,9,4138106,sinestep5.wav,None,1000,1,4454112,1224,317.285
C,9,4138106,sinestep3_catch.wav,2,73,1,4456112,327,319.285