block,count_main_sequence,first_trial_timestamp,fname,response_catch_response,response_time_catch_response,subject_nr,time_stimulus,time_to_pad,timing
P,NA,251186,vowelstep1_catch.wav,None,1000,2,251199,0,
P,NA,251186,sinestep7_catch.wav,None,1000,2,253199,430,
P,NA,251186,vowelstep5_catch.wav,None,1000,2,255199,432,
P,NA,251186,sinestep7.wav,None,1000,2,257199,435,
P,NA,251186,sinestep7.wav,None,1000,2,259200,443,
P,NA,251186,sinestep3.wav,None,1000,2,261200,444,
P,NA,251186,sinestep1.wav,None,1000,2,263199,444,
P,NA,251186,vowelstep7.wav,None,1000,2,265199,419,
P,NA,251186,vowelstep3.wav,None,1000,2,267199,434,
P,NA,251186,silence.wav,None,1000,2,269199,434,
P,NA,251186,sinestep1.wav,None,1000,2,271199,434,
P,NA,251186,vowelstep1.wav,None,1000,2,273199,444,
P,NA,251186,sinestep5.wav,None,1000,2,275200,444,
P,NA,251186,sinestep1.wav,None,1000,2,277200,443,
P,NA,251186,sinestep1.wav,None,1000,2,279200,452,
P,NA,251186,vowelstep1.wav,None,1000,2,281200,433,
P,NA,251186,silence.wav,None,1000,2,283200,432,
P,NA,251186,silence.wav,None,1000,2,285200,432,
P,NA,251186,silence.wav,None,1000,2,287199,443,
P,NA,251186,sinestep3_catch.wav,2,262,2,289199,443,
P,NA,251186,vowelstep7.wav,None,1000,2,291199,1180,
P,NA,251186,silence.wav,None,1000,2,293200,453,
P,NA,251186,vowelstep7.wav,None,1000,2,295200,431,
P,NA,251186,vowelstep3.wav,None,1000,2,297200,432,
P,NA,251186,silence.wav,None,1000,2,299200,429,
P,NA,251186,vowelstep1.wav,None,1000,2,301200,442,
P,NA,251186,sinestep3.wav,None,1000,2,303200,439,
P,NA,251186,vowelstep1.wav,None,1000,2,305200,441,
P,NA,251186,silence.wav,None,1000,2,307200,452,
P,NA,251186,sinestep7.wav,None,1000,2,309200,432,
P,NA,251186,sinestep5_catch.wav,2,8,2,311200,431,
P,NA,251186,silence.wav,None,1000,2,313200,1422,
P,NA,251186,sinestep7.wav,None,1000,2,315200,431,
P,NA,251186,sinestep5.wav,None,1000,2,317200,441,
P,NA,251186,sinestep3.wav,None,1000,2,319200,439,
P,NA,251186,sinestep1_catch.wav,2,110,2,321200,451,
P,NA,251186,vowelstep3_catch.wav,2,267,2,323200,1310,
P,NA,251186,vowelstep5_catch.wav,2,280,2,325200,1163,
P,NA,251186,vowelstep7.wav,None,1000,2,327200,1150,
P,NA,251186,silence.wav,None,1000,2,329201,440,
P,NA,251186,vowelstep7_catch.wav,2,218,2,331201,439,
P,NA,251186,vowelstep3.wav,None,1000,2,333201,1218,
P,NA,251186,silence.wav,None,1000,2,335200,449,
P,NA,251186,sinestep7_catch.wav,2,175,2,337200,430,
P,NA,251186,sinestep7.wav,None,1000,2,339200,1254,
P,NA,251186,vowelstep5.wav,None,1000,2,341200,429,
P,NA,251186,vowelstep3.wav,None,1000,2,343200,439,
P,NA,251186,sinestep5.wav,None,1000,2,345201,440,
P,NA,251186,sinestep5_catch.wav,None,1000,2,347201,438,
P,NA,251186,sinestep3.wav,None,1000,2,349201,448,
P,NA,251186,silence.wav,None,1000,2,351201,418,
P,NA,251186,vowelstep7.wav,None,1000,2,353201,429,
P,NA,251186,sinestep3_catch.wav,2,21,2,355201,428,
P,NA,251186,vowelstep5.wav,None,1000,2,357201,1417,
P,NA,251186,silence.wav,None,1000,2,359201,438,
P,NA,251186,sinestep1.wav,None,1000,2,361200,437,
P,NA,251186,vowelstep1.wav,None,1000,2,363201,448,
P,NA,251186,silence.wav,None,1000,2,365201,447,
P,NA,251186,silence.wav,None,1000,2,367201,447,
P,NA,251186,silence.wav,None,1000,2,369201,448,
P,NA,251186,sinestep1_catch.wav,2,72,2,371201,437,
P,NA,251186,sinestep1.wav,None,1000,2,373201,1365,
P,NA,251186,silence.wav,None,1000,2,375201,437,
P,NA,251186,vowelstep1_catch.wav,2,130,2,377201,437,
P,NA,251186,vowelstep5.wav,None,1000,2,379201,1316,
P,NA,251186,sinestep5.wav,None,1000,2,381202,447,
P,NA,251186,vowelstep3.wav,None,1000,2,383202,445,
P,NA,251186,silence.wav,None,1000,2,385201,425,
P,NA,251186,silence.wav,None,1000,2,387201,435,
P,NA,251186,sinestep7.wav,None,1000,2,389201,437,
P,NA,251186,vowelstep5.wav,None,1000,2,391201,436,
P,NA,251186,silence.wav,None,1000,2,393201,446,
P,NA,251186,vowelstep3_catch.wav,2,60,2,395201,446,
P,NA,251186,silence.wav,None,1000,2,397201,1385,
P,NA,251186,vowelstep5.wav,None,1000,2,399202,425,
P,NA,251186,vowelstep5_catch.wav,2,101,2,401202,435,
P,NA,251186,vowelstep7_catch.wav,2,235,2,403202,1333,
P,NA,251186,sinestep3.wav,None,1000,2,405202,1200,
P,NA,251186,vowelstep5.wav,None,1000,2,407202,445,
P,NA,251186,vowelstep3.wav,None,1000,2,409201,445,
P,NA,251186,silence.wav,None,1000,2,411201,445,
P,NA,251186,sinestep3.wav,None,1000,2,413201,425,
P,NA,251186,silence.wav,None,1000,2,415202,432,
P,NA,251186,sinestep7_catch.wav,2,67,2,417202,434,
P,NA,251186,sinestep5_catch.wav,2,382,2,419202,1367,
P,NA,251186,sinestep5.wav,None,1000,2,421202,1062,
P,NA,251186,sinestep5.wav,None,1000,2,423202,444,
P,NA,251186,vowelstep7.wav,None,1000,2,425202,444,
P,NA,251186,sinestep3_catch.wav,2,75,2,427202,454,
P,NA,251186,vowelstep1.wav,None,1000,2,429202,1358,
H,0,820085,sinestep3.wav,None,1000,2,820092,0,1.285
H,0,820085,sinestep7.wav,None,1000,2,822092,323,3.285
H,0,820085,sinestep3.wav,None,1000,2,824092,338,5.285
H,0,820085,vowelstep3.wav,2,132,2,826092,337,7.285
H,0,820085,vowelstep1.wav,None,1000,2,828091,1216,9.285
H,0,820085,sinestep7.wav,None,1000,2,830091,348,11.285
H,0,820085,vowelstep3.wav,None,1000,2,832091,348,13.285
H,0,820085,silence.wav,None,1000,2,834091,354,15.285
H,0,820085,vowelstep1.wav,None,1000,2,836092,338,17.285
H,0,820085,sinestep5.wav,None,1000,2,838092,338,19.285
H,0,820085,sinestep7.wav,None,1000,2,840092,336,21.285
H,0,820085,vowelstep7.wav,None,1000,2,842092,347,23.285
H,0,820085,vowelstep1_catch.wav,2,193,2,844092,346,25.285
H,0,820085,sinestep5.wav,None,1000,2,846092,1149,27.285
H,0,820085,vowelstep5.wav,None,1000,2,848092,358,29.285
H,0,820085,silence.wav,None,1000,2,850092,337,31.285
H,0,820085,vowelstep3_catch.wav,2,200,2,852092,332,33.285
H,0,820085,sinestep7.wav,None,1000,2,854092,1136,35.285
H,0,820085,sinestep5.wav,None,1000,2,856092,346,37.285
H,0,820085,silence.wav,None,1000,2,858092,348,39.285
H,0,820085,vowelstep3.wav,None,1000,2,860092,346,41.285
H,0,820085,vowelstep1.wav,None,1000,2,862092,356,43.285
H,0,820085,vowelstep1.wav,None,1000,2,864092,337,45.285
H,0,820085,vowelstep3.wav,None,1000,2,866092,336,47.285
H,0,820085,sinestep3.wav,None,1000,2,868092,336,49.285
H,0,820085,vowelstep1.wav,None,1000,2,870093,345,51.285
H,0,820085,sinestep7.wav,None,1000,2,872093,345,53.285
H,0,820085,vowelstep7.wav,None,1000,2,874093,344,55.285
H,0,820085,vowelstep5_catch.wav,2,88,2,876092,340,57.285
H,0,820085,vowelstep5.wav,None,1000,2,878092,1246,59.285
H,0,820085,vowelstep3.wav,None,1000,2,880092,334,61.285
H,0,820085,vowelstep7_catch.wav,2,173,2,882092,331,63.285
H,0,820085,sinestep3.wav,None,1000,2,884092,1159,65.285
H,0,820085,sinestep1.wav,None,1000,2,886092,345,67.285
H,0,820085,sinestep7.wav,None,1000,2,888093,345,69.285
H,0,820085,silence.wav,None,1000,2,890093,354,71.285
H,0,820085,vowelstep1.wav,None,1000,2,892093,324,73.285
H,0,820085,vowelstep7.wav,None,1000,2,894093,335,75.285
H,0,820085,sinestep7.wav,None,1000,2,896093,328,77.285
H,0,820085,sinestep1.wav,None,1000,2,898093,344,79.285
H,0,820085,sinestep7.wav,None,1000,2,900092,344,81.285
H,0,820085,sinestep1.wav,None,1000,2,902092,344,83.285
H,0,820085,vowelstep5.wav,None,1000,2,904092,343,85.285
H,0,820085,sinestep3.wav,None,1000,2,906093,353,87.285
H,0,820085,vowelstep5.wav,None,1000,2,908093,333,89.285
H,0,820085,silence.wav,None,1000,2,910093,333,91.285
H,0,820085,silence.wav,None,1000,2,912093,333,93.285
H,0,820085,sinestep5.wav,None,1000,2,914093,343,95.285
H,0,820085,sinestep3.wav,None,1000,2,916093,343,97.285
H,0,820085,sinestep7.wav,None,1000,2,918093,343,99.285
H,0,820085,sinestep7_catch.wav,2,49,2,920093,321,101.285
H,0,820085,silence.wav,None,1000,2,922094,1284,103.285
H,0,820085,sinestep3.wav,None,1000,2,924093,332,105.285
H,0,820085,silence.wav,None,1000,2,926093,332,107.285
H,0,820085,vowelstep1.wav,None,1000,2,928093,341,109.285
H,0,820085,vowelstep7.wav,None,1000,2,930093,342,111.285
H,0,820085,sinestep5.wav,None,1000,2,932093,342,113.285
H,0,820085,silence.wav,None,1000,2,934093,350,115.285
H,0,820085,vowelstep7.wav,None,1000,2,936093,352,117.285
H,0,820085,vowelstep3.wav,None,1000,2,938093,352,119.285
H,0,820085,sinestep5.wav,None,1000,2,940094,362,121.285
H,0,820085,sinestep1.wav,None,1000,2,942094,339,123.285
H,0,820085,vowelstep3.wav,None,1000,2,944094,341,125.285
H,0,820085,vowelstep3.wav,None,1000,2,946094,342,127.285
H,0,820085,vowelstep5.wav,None,1000,2,948093,351,129.285
H,0,820085,vowelstep1.wav,None,1000,2,950093,351,131.285
H,0,820085,vowelstep7.wav,None,1000,2,952093,351,133.285
H,0,820085,vowelstep3.wav,None,1000,2,954093,361,135.285
H,0,820085,vowelstep5.wav,None,1000,2,956093,331,137.285
H,0,820085,vowelstep5.wav,None,1000,2,958094,341,139.285
H,0,820085,sinestep7.wav,None,1000,2,960094,340,141.285
H,0,820085,vowelstep1.wav,None,1000,2,962094,348,143.285
H,0,820085,sinestep3.wav,None,1000,2,964094,350,145.285
H,0,820085,sinestep1.wav,None,1000,2,966094,350,147.285
H,0,820085,vowelstep1.wav,None,1000,2,968094,350,149.285
H,0,820085,sinestep5_catch.wav,2,97,2,970094,340,151.285
H,0,820085,sinestep7.wav,None,1000,2,972093,1237,153.285
H,0,820085,sinestep3_catch.wav,2,141,2,974093,337,155.285
H,0,820085,sinestep7.wav,None,1000,2,976094,1195,157.285
H,0,820085,sinestep5.wav,None,1000,2,978094,349,159.285
H,0,820085,silence.wav,None,1000,2,980094,348,161.285
H,0,820085,sinestep1_catch.wav,2,178,2,982094,355,163.285
H,0,820085,vowelstep7.wav,None,1000,2,984094,1149,165.285
H,0,820085,vowelstep7.wav,None,1000,2,986094,338,167.285
H,0,820085,sinestep7.wav,None,1000,2,988094,339,169.285
H,0,820085,sinestep3.wav,None,1000,2,990094,349,171.285
H,0,820085,sinestep5.wav,None,1000,2,992095,349,173.285
H,0,820085,vowelstep1_catch.wav,2,59,2,994095,348,175.285
H,0,820085,vowelstep1.wav,None,1000,2,996094,1296,177.285
H,0,820085,sinestep3.wav,None,1000,2,998094,337,179.285
H,0,820085,sinestep3.wav,None,1000,2,1000094,337,181.285
H,0,820085,vowelstep5.wav,None,1000,2,1002094,337,183.285
H,0,820085,sinestep1.wav,None,1000,2,1004094,337,185.285
H,0,820085,sinestep1.wav,None,1000,2,1006094,348,187.285
H,0,820085,vowelstep7.wav,None,1000,2,1008094,348,189.285
H,0,820085,sinestep1.wav,None,1000,2,1010095,358,191.285
H,0,820085,sinestep5.wav,None,1000,2,1012095,356,193.285
H,0,820085,vowelstep3_catch.wav,2,116,2,1014095,332,195.285
H,0,820085,sinestep1.wav,None,1000,2,1016095,1220,197.285
H,0,820085,silence.wav,None,1000,2,1018095,337,199.285
H,0,820085,vowelstep1.wav,None,1000,2,1020094,346,201.285
H,0,820085,vowelstep5_catch.wav,2,63,2,1022094,346,203.285
H,0,820085,sinestep5.wav,None,1000,2,1024094,1283,205.285
H,0,820085,sinestep1.wav,None,1000,2,1026094,327,207.285
H,0,820085,silence.wav,None,1000,2,1028095,337,209.285
H,0,820085,sinestep3.wav,None,1000,2,1030095,336,211.285
H,0,820085,silence.wav,None,1000,2,1032095,345,213.285
H,0,820085,vowelstep7_catch.wav,2,14,2,1034095,345,215.285
H,0,820085,vowelstep5.wav,None,1000,2,1036095,1330,217.285
H,0,820085,sinestep7.wav,None,1000,2,1038095,346,219.285
H,0,820085,silence.wav,None,1000,2,1040095,336,221.285
H,0,820085,sinestep1.wav,None,1000,2,1042095,332,223.285
H,0,820085,silence.wav,None,1000,2,1044094,335,225.285
H,0,820085,silence.wav,None,1000,2,1046095,328,227.285
H,0,820085,silence.wav,None,1000,2,1048095,343,229.285
H,0,820085,silence.wav,None,1000,2,1050095,342,231.285
H,0,820085,sinestep5.wav,None,1000,2,1052095,343,233.285
H,0,820085,silence.wav,None,1000,2,1054095,325,235.285
H,0,820085,vowelstep3.wav,None,1000,2,1056095,334,237.285
H,0,820085,silence.wav,None,1000,2,1058095,335,239.285
H,0,820085,silence.wav,None,1000,2,1060095,333,241.285
H,0,820085,vowelstep1_catch.wav,2,43,2,1062096,344,243.285
H,0,820085,vowelstep5.wav,None,1000,2,1064096,1300,245.285
H,0,820085,vowelstep7.wav,None,1000,2,1066096,343,247.285
H,0,820085,vowelstep3_catch.wav,2,246,2,1068095,334,249.285
H,0,820085,vowelstep1.wav,None,1000,2,1070095,1087,251.285
H,0,820085,sinestep3.wav,None,1000,2,1072095,330,253.285
H,0,820085,vowelstep5_catch.wav,None,1000,2,1074095,333,255.285
H,0,820085,vowelstep5.wav,None,1000,2,1076095,343,257.285
H,0,820085,silence.wav,None,1000,2,1078095,343,259.285
H,0,820085,vowelstep7.wav,None,1000,2,1080096,344,261.285
H,0,820085,sinestep5.wav,None,1000,2,1082096,352,263.285
H,0,820085,vowelstep5.wav,None,1000,2,1084096,333,265.285
H,0,820085,vowelstep7.wav,None,1000,2,1086096,332,267.285
H,0,820085,vowelstep3.wav,None,1000,2,1088096,331,269.285
H,0,820085,vowelstep3.wav,None,1000,2,1090096,343,271.285
H,0,820085,silence.wav,None,1000,2,1092095,342,273.285
H,0,820085,vowelstep3.wav,None,1000,2,1094095,343,275.285
H,0,820085,sinestep1.wav,None,1000,2,1096095,352,277.285
H,0,820085,silence.wav,None,1000,2,1098096,332,279.285
H,0,820085,sinestep1.wav,None,1000,2,1100096,332,281.285
H,0,820085,vowelstep3.wav,None,1000,2,1102096,328,283.285
H,0,820085,silence.wav,None,1000,2,1104096,342,285.285
H,0,820085,vowelstep5.wav,None,1000,2,1106096,340,287.285
H,0,820085,vowelstep5.wav,None,1000,2,1108096,341,289.285
H,0,820085,vowelstep1.wav,None,1000,2,1110096,341,291.285
H,0,820085,sinestep5.wav,None,1000,2,1112096,331,293.285
H,0,820085,vowelstep7.wav,None,1000,2,1114096,329,295.285
H,0,820085,vowelstep1.wav,None,1000,2,1116096,330,297.285
H,0,820085,vowelstep7.wav,None,1000,2,1118096,329,299.285
H,0,820085,vowelstep3.wav,None,1000,2,1120096,339,301.285
H,0,820085,sinestep1.wav,None,1000,2,1122096,340,303.285
H,0,820085,sinestep5.wav,None,1000,2,1124096,350,305.285
H,0,820085,vowelstep5.wav,None,1000,2,1126096,320,307.285
H,0,820085,sinestep3.wav,None,1000,2,1128096,330,309.285
H,0,820085,vowelstep7.wav,None,1000,2,1130096,330,311.285
H,0,820085,sinestep7.wav,None,1000,2,1132097,340,313.285
H,0,820085,sinestep5.wav,None,1000,2,1134097,339,315.285
H,0,820085,sinestep3.wav,None,1000,2,1136097,340,317.285
H,0,820085,sinestep1.wav,None,1000,2,1138097,339,319.285
I,1,1201041,vowelstep7.wav,1,205,2,1201047,0,1.285
I,1,1201041,sinestep1_catch.wav,1,174,2,1203048,1144,3.285
I,1,1201041,sinestep3.wav,None,1000,2,1205048,1155,5.285
I,1,1201041,silence.wav,None,1000,2,1207048,341,7.285
I,1,1201041,vowelstep7.wav,None,1000,2,1209048,337,9.285
I,1,1201041,sinestep3_catch.wav,1,119,2,1211048,341,11.285
I,1,1201041,vowelstep3.wav,None,1000,2,1213047,1231,13.285
I,1,1201041,vowelstep3.wav,None,1000,2,1215047,350,15.285
I,1,1201041,silence.wav,None,1000,2,1217047,361,17.285
I,1,1201041,vowelstep1.wav,None,1000,2,1219048,360,19.285
I,1,1201041,vowelstep5.wav,None,1000,2,1221048,340,21.285
I,1,1201041,vowelstep7.wav,None,1000,2,1223048,336,23.285
I,1,1201041,sinestep1.wav,None,1000,2,1225048,340,25.285
I,1,1201041,vowelstep1.wav,None,1000,2,1227048,349,27.285
I,1,1201041,sinestep5_catch.wav,1,53,2,1229048,351,29.285
I,1,1201041,sinestep5.wav,None,1000,2,1231048,1296,31.285
I,1,1201041,vowelstep1.wav,None,1000,2,1233048,360,33.285
I,1,1201041,sinestep7.wav,None,1000,2,1235048,340,35.285
I,1,1201041,vowelstep3.wav,None,1000,2,1237049,333,37.285
I,1,1201041,vowelstep1.wav,None,1000,2,1239048,340,39.285
I,1,1201041,vowelstep1.wav,None,1000,2,1241048,348,41.285
I,1,1201041,sinestep3.wav,None,1000,2,1243048,349,43.285
I,1,1201041,sinestep5.wav,None,1000,2,1245048,359,45.285
I,1,1201041,sinestep5.wav,None,1000,2,1247048,359,47.285
I,1,1201041,vowelstep3.wav,None,1000,2,1249048,329,49.285
I,1,1201041,silence.wav,None,1000,2,1251048,339,51.285
I,1,1201041,sinestep7_catch.wav,1,77,2,1253048,338,53.285
I,1,1201041,silence.wav,None,1000,2,1255049,1271,55.285
I,1,1201041,sinestep1.wav,None,1000,2,1257049,348,57.285
I,1,1201041,vowelstep1.wav,None,1000,2,1259049,348,59.285
I,1,1201041,sinestep1.wav,None,1000,2,1261049,356,61.285
I,1,1201041,sinestep1.wav,None,1000,2,1263048,336,63.285
I,1,1201041,vowelstep7.wav,None,1000,2,1265048,336,65.285
I,1,1201041,sinestep5.wav,None,1000,2,1267048,335,67.285
I,1,1201041,sinestep5_catch.wav,1,128,2,1269048,348,69.285
I,1,1201041,vowelstep7.wav,None,1000,2,1271048,1211,71.285
I,1,1201041,vowelstep5.wav,None,1000,2,1273049,348,73.285
I,1,1201041,sinestep3.wav,None,1000,2,1275049,353,75.285
I,1,1201041,vowelstep1.wav,None,1000,2,1277049,322,77.285
I,1,1201041,sinestep3.wav,None,1000,2,1279049,337,79.285
I,1,1201041,sinestep5.wav,None,1000,2,1281049,337,81.285
I,1,1201041,sinestep5.wav,None,1000,2,1283049,337,83.285
I,1,1201041,vowelstep5.wav,None,1000,2,1285049,347,85.285
I,1,1201041,vowelstep7.wav,None,1000,2,1287048,347,87.285
I,1,1201041,sinestep3.wav,None,1000,2,1289049,356,89.285
I,1,1201041,vowelstep3.wav,None,1000,2,1291049,327,91.285
I,1,1201041,sinestep3.wav,None,1000,2,1293049,336,93.285
I,1,1201041,vowelstep5.wav,None,1000,2,1295049,336,95.285
I,1,1201041,sinestep7.wav,None,1000,2,1297049,346,97.285
I,1,1201041,sinestep3_catch.wav,1,214,2,1299049,346,99.285
I,1,1201041,sinestep1_catch.wav,1,62,2,1301049,1131,101.285
I,1,1201041,vowelstep3.wav,None,1000,2,1303049,1280,103.285
I,1,1201041,vowelstep3.wav,None,1000,2,1305049,336,105.285
I,1,1201041,vowelstep5.wav,None,1000,2,1307050,336,107.285
I,1,1201041,sinestep5.wav,None,1000,2,1309050,335,109.285
I,1,1201041,vowelstep5.wav,None,1000,2,1311049,335,111.285
I,1,1201041,vowelstep5.wav,None,1000,2,1313049,344,113.285
I,1,1201041,vowelstep1.wav,None,1000,2,1315049,344,115.285
I,1,1201041,vowelstep1_catch.wav,1,97,2,1317049,355,117.285
I,1,1201041,sinestep7.wav,None,1000,2,1319049,1236,119.285
I,1,1201041,vowelstep3.wav,None,1000,2,1321049,335,121.285
I,1,1201041,sinestep7.wav,None,1000,2,1323049,335,123.285
I,1,1201041,sinestep7.wav,None,1000,2,1325050,345,125.285
I,1,1201041,vowelstep7.wav,None,1000,2,1327050,343,127.285
I,1,1201041,vowelstep3.wav,None,1000,2,1329050,344,129.285
I,1,1201041,sinestep5.wav,1,84,2,1331050,344,131.285
I,1,1201041,sinestep5.wav,None,1000,2,1333050,1238,133.285
I,1,1201041,vowelstep3.wav,None,1000,2,1335049,334,135.285
I,1,1201041,sinestep5.wav,None,1000,2,1337049,334,137.285
I,1,1201041,sinestep1.wav,None,1000,2,1339049,334,139.285
I,1,1201041,vowelstep7.wav,None,1000,2,1341049,344,141.285
I,1,1201041,silence.wav,None,1000,2,1343050,342,143.285
I,1,1201041,vowelstep7.wav,None,1000,2,1345050,342,145.285
I,1,1201041,silence.wav,None,1000,2,1347050,353,147.285
I,1,1201041,sinestep1.wav,None,1000,2,1349050,332,149.285
I,1,1201041,vowelstep1.wav,None,1000,2,1351050,333,151.285
I,1,1201041,vowelstep3.wav,None,1000,2,1353050,327,153.285
I,1,1201041,silence.wav,None,1000,2,1355050,342,155.285
I,1,1201041,silence.wav,None,1000,2,1357050,343,157.285
I,1,1201041,vowelstep1.wav,None,1000,2,1359050,342,159.285
I,1,1201041,sinestep1.wav,None,1000,2,1361050,322,161.285
I,1,1201041,vowelstep3_catch.wav,1,165,2,1363050,330,163.285
I,1,1201041,sinestep1.wav,None,1000,2,1365050,1164,165.285
I,1,1201041,vowelstep5.wav,None,1000,2,1367050,331,167.285
I,1,1201041,vowelstep5_catch.wav,1,205,2,1369050,341,169.285
I,1,1201041,sinestep1.wav,None,1000,2,1371050,1136,171.285
I,1,1201041,silence.wav,None,1000,2,1373050,342,173.285
I,1,1201041,vowelstep5.wav,None,1000,2,1375050,351,175.285
I,1,1201041,sinestep3.wav,None,1000,2,1377051,329,177.285
I,1,1201041,sinestep3.wav,None,1000,2,1379051,330,179.285
I,1,1201041,silence.wav,None,1000,2,1381051,330,181.285
I,1,1201041,silence.wav,None,1000,2,1383050,341,183.285
I,1,1201041,vowelstep3.wav,None,1000,2,1385050,339,185.285
I,1,1201041,vowelstep7.wav,None,1000,2,1387050,341,187.285
I,1,1201041,vowelstep7.wav,None,1000,2,1389050,351,189.285
I,1,1201041,silence.wav,None,1000,2,1391050,330,191.285
I,1,1201041,sinestep3.wav,None,1000,2,1393050,331,193.285
I,1,1201041,sinestep3.wav,None,1000,2,1395051,330,195.285
I,1,1201041,vowelstep5.wav,None,1000,2,1397051,339,197.285
I,1,1201041,vowelstep1.wav,None,1000,2,1399051,340,199.285
I,1,1201041,vowelstep1.wav,None,1000,2,1401051,339,201.285
I,1,1201041,sinestep5.wav,None,1000,2,1403051,340,203.285
I,1,1201041,silence.wav,None,1000,2,1405051,328,205.285
I,1,1201041,sinestep5.wav,None,1000,2,1407050,329,207.285
I,1,1201041,sinestep7.wav,None,1000,2,1409050,330,209.285
I,1,1201041,sinestep1.wav,None,1000,2,1411050,329,211.285
I,1,1201041,sinestep5.wav,None,1000,2,1413051,335,213.285
I,1,1201041,vowelstep5.wav,None,1000,2,1415051,335,215.285
I,1,1201041,sinestep7.wav,None,1000,2,1417051,348,217.285
I,1,1201041,sinestep5.wav,None,1000,2,1419051,348,219.285
I,1,1201041,sinestep3.wav,None,1000,2,1421051,346,221.285
I,1,1201041,silence.wav,None,1000,2,1423051,359,223.285
I,1,1201041,vowelstep7_catch.wav,1,249,2,1425051,329,225.285
I,1,1201041,sinestep7.wav,None,1000,2,1427051,1089,227.285
I,1,1201041,sinestep7.wav,None,1000,2,1429052,338,229.285
I,1,1201041,sinestep3.wav,None,1000,2,1431051,330,231.285
I,1,1201041,vowelstep3.wav,None,1000,2,1433051,347,233.285
I,1,1201041,silence.wav,None,1000,2,1435051,346,235.285
I,1,1201041,sinestep3.wav,None,1000,2,1437051,347,237.285
I,1,1201041,sinestep5.wav,None,1000,2,1439051,357,239.285
I,1,1201041,silence.wav,None,1000,2,1441051,337,241.285
I,1,1201041,vowelstep3.wav,None,1000,2,1443051,337,243.285
I,1,1201041,sinestep1.wav,None,1000,2,1445051,333,245.285
I,1,1201041,sinestep1.wav,None,1000,2,1447052,347,247.285
I,1,1201041,sinestep7.wav,None,1000,2,1449052,346,249.285
I,1,1201041,vowelstep7.wav,None,1000,2,1451052,356,251.285
I,1,1201041,vowelstep5.wav,None,1000,2,1453052,326,253.285
I,1,1201041,silence.wav,None,1000,2,1455051,336,255.285
I,1,1201041,sinestep3.wav,None,1000,2,1457051,336,257.285
I,1,1201041,vowelstep1.wav,None,1000,2,1459051,336,259.285
I,1,1201041,vowelstep1.wav,None,1000,2,1461051,346,261.285
I,1,1201041,silence.wav,None,1000,2,1463051,346,263.285
I,1,1201041,vowelstep3.wav,None,1000,2,1465052,345,265.285
I,1,1201041,silence.wav,None,1000,2,1467052,355,267.285
I,1,1201041,silence.wav,None,1000,2,1469052,335,269.285
I,1,1201041,sinestep7.wav,None,1000,2,1471052,334,271.285
I,1,1201041,sinestep7.wav,None,1000,2,1473052,335,273.285
I,1,1201041,vowelstep5.wav,None,1000,2,1475052,345,275.285
I,1,1201041,silence.wav,None,1000,2,1477052,341,277.285
I,1,1201041,silence.wav,None,1000,2,1479051,344,279.285
I,1,1201041,sinestep1.wav,None,1000,2,1481051,354,281.285
I,1,1201041,silence.wav,None,1000,2,1483052,334,283.285
I,1,1201041,vowelstep7.wav,None,1000,2,1485052,334,285.285
I,1,1201041,vowelstep5_catch.wav,1,154,2,1487052,333,287.285
I,1,1201041,sinestep7.wav,None,1000,2,1489052,1189,289.285
I,1,1201041,sinestep1.wav,None,1000,2,1491052,344,291.285
I,1,1201041,vowelstep3_catch.wav,1,224,2,1493052,343,293.285
I,1,1201041,sinestep1.wav,None,1000,2,1495052,1099,295.285
I,1,1201041,vowelstep7.wav,None,1000,2,1497052,334,297.285
I,1,1201041,sinestep3.wav,None,1000,2,1499053,333,299.285
I,1,1201041,vowelstep5.wav,None,1000,2,1501053,333,301.285
I,1,1201041,vowelstep1_catch.wav,1,204,2,1503052,343,303.285
I,1,1201041,vowelstep7.wav,None,1000,2,1505052,1138,305.285
I,1,1201041,vowelstep5.wav,None,1000,2,1507052,343,307.285
I,1,1201041,sinestep1_catch.wav,1,682,2,1509052,339,309.285
I,1,1201041,silence.wav,None,1000,2,1511052,651,311.285
I,1,1201041,sinestep7.wav,None,1000,2,1513052,331,313.285
I,1,1201041,silence.wav,None,1000,2,1515052,329,315.285
I,1,1201041,vowelstep1.wav,None,1000,2,1517053,333,317.285
I,1,1201041,sinestep7.wav,None,1000,2,1519053,342,319.285
J,2,1576879,sinestep5_catch.wav,1,493,2,1576887,0,1.285
J,2,1576879,sinestep5.wav,None,1000,2,1578887,853,3.285
J,2,1576879,sinestep3.wav,None,1000,2,1580887,347,5.285
J,2,1576879,sinestep1.wav,None,1000,2,1582886,346,7.285
J,2,1576879,sinestep7.wav,None,1000,2,1584886,327,9.285
J,2,1576879,vowelstep3.wav,None,1000,2,1586887,337,11.285
J,2,1576879,sinestep1.wav,None,1000,2,1588887,336,13.285
J,2,1576879,vowelstep5.wav,None,1000,2,1590887,251,15.285
J,2,1576879,vowelstep3.wav,None,1000,2,1592887,345,17.285
J,2,1576879,vowelstep1.wav,None,1000,2,1594887,345,19.285
J,2,1576879,vowelstep1.wav,None,1000,2,1596887,345,21.285
J,2,1576879,sinestep3.wav,None,1000,2,1598887,352,23.285
J,2,1576879,silence.wav,None,1000,2,1600887,336,25.285
J,2,1576879,vowelstep7.wav,None,1000,2,1602887,335,27.285
J,2,1576879,sinestep3.wav,None,1000,2,1604888,336,29.285
J,2,1576879,sinestep7.wav,None,1000,2,1606887,345,31.285
J,2,1576879,silence.wav,None,1000,2,1608887,344,33.285
J,2,1576879,vowelstep5.wav,None,1000,2,1610887,344,35.285
J,2,1576879,sinestep1.wav,None,1000,2,1612887,351,37.285
J,2,1576879,sinestep1_catch.wav,1,8,2,1614887,334,39.285
J,2,1576879,sinestep7.wav,None,1000,2,1616887,1323,41.285
J,2,1576879,vowelstep7.wav,None,1000,2,1618887,335,43.285
J,2,1576879,sinestep3_catch.wav,1,78,2,1620887,340,45.285
J,2,1576879,vowelstep3.wav,None,1000,2,1622888,1264,47.285
J,2,1576879,vowelstep7.wav,None,1000,2,1624888,344,49.285
J,2,1576879,sinestep1.wav,None,1000,2,1626888,343,51.285
J,2,1576879,vowelstep3.wav,None,1000,2,1628888,321,53.285
J,2,1576879,vowelstep1.wav,None,1000,2,1630888,329,55.285
J,2,1576879,sinestep5.wav,None,1000,2,1632887,334,57.285
J,2,1576879,sinestep5_catch.wav,1,183,2,1634887,342,59.285
J,2,1576879,sinestep5.wav,None,1000,2,1636887,1160,61.285
J,2,1576879,vowelstep7.wav,None,1000,2,1638888,344,63.285
J,2,1576879,sinestep7.wav,None,1000,2,1640888,343,65.285
J,2,1576879,vowelstep1.wav,None,1000,2,1642888,333,67.285
J,2,1576879,sinestep7_catch.wav,1,179,2,1644888,332,69.285
J,2,1576879,silence.wav,None,1000,2,1646888,1148,71.285
J,2,1576879,vowelstep5.wav,None,1000,2,1648888,332,73.285
J,2,1576879,sinestep5.wav,None,1000,2,1650888,341,75.285
J,2,1576879,sinestep5.wav,None,1000,2,1652888,342,77.285
J,2,1576879,vowelstep3.wav,None,1000,2,1654888,343,79.285
J,2,1576879,vowelstep5.wav,None,1000,2,1656888,322,81.285
J,2,1576879,sinestep3.wav,None,1000,2,1658888,331,83.285
J,2,1576879,silence.wav,None,1000,2,1660888,331,85.285
J,2,1576879,vowelstep3.wav,None,1000,2,1662888,337,87.285
J,2,1576879,vowelstep7.wav,None,1000,2,1664888,342,89.285
J,2,1576879,silence.wav,None,1000,2,1666888,340,91.285
J,2,1576879,sinestep3.wav,None,1000,2,1668888,340,93.285
J,2,1576879,silence.wav,None,1000,2,1670888,322,95.285
J,2,1576879,sinestep1.wav,None,1000,2,1672888,332,97.285
J,2,1576879,sinestep5_catch.wav,1,179,2,1674889,327,99.285
J,2,1576879,sinestep7.wav,None,1000,2,1676889,1146,101.285
J,2,1576879,sinestep5.wav,None,1000,2,1678889,336,103.285
J,2,1576879,sinestep5.wav,None,1000,2,1680888,340,105.285
J,2,1576879,sinestep3.wav,None,1000,2,1682888,338,107.285
J,2,1576879,sinestep3_catch.wav,1,65,2,1684888,351,109.285
J,2,1576879,sinestep3.wav,None,1000,2,1686888,1264,111.285
J,2,1576879,silence.wav,None,1000,2,1688888,329,113.285
J,2,1576879,sinestep1.wav,None,1000,2,1690888,330,115.285
J,2,1576879,silence.wav,None,1000,2,1692889,339,117.285
J,2,1576879,vowelstep3.wav,None,1000,2,1694889,338,119.285
J,2,1576879,vowelstep5.wav,None,1000,2,1696889,339,121.285
J,2,1576879,vowelstep7.wav,None,1000,2,1698889,319,123.285
J,2,1576879,silence.wav,None,1000,2,1700889,325,125.285
J,2,1576879,sinestep1.wav,None,1000,2,1702889,329,127.285
J,2,1576879,sinestep3.wav,None,1000,2,1704888,329,129.285
J,2,1576879,sinestep7.wav,None,1000,2,1706888,338,131.285
J,2,1576879,silence.wav,None,1000,2,1708889,336,133.285
J,2,1576879,sinestep1.wav,None,1000,2,1710889,339,135.285
J,2,1576879,vowelstep7.wav,None,1000,2,1712889,335,137.285
J,2,1576879,sinestep5.wav,None,1000,2,1714889,328,139.285
J,2,1576879,vowelstep1.wav,None,1000,2,1716889,327,141.285
J,2,1576879,vowelstep7.wav,None,1000,2,1718889,328,143.285
J,2,1576879,vowelstep3.wav,None,1000,2,1720889,326,145.285
J,2,1576879,vowelstep3.wav,None,1000,2,1722889,338,147.285
J,2,1576879,sinestep7.wav,None,1000,2,1724889,338,149.285
J,2,1576879,vowelstep5.wav,None,1000,2,1726890,338,151.285
J,2,1576879,silence.wav,None,1000,2,1728889,327,153.285
J,2,1576879,sinestep1.wav,None,1000,2,1730889,348,155.285
J,2,1576879,sinestep3.wav,None,1000,2,1732889,357,157.285
J,2,1576879,silence.wav,None,1000,2,1734889,358,159.285
J,2,1576879,sinestep1.wav,None,1000,2,1736889,337,161.285
J,2,1576879,vowelstep7.wav,None,1000,2,1738889,337,163.285
J,2,1576879,vowelstep7.wav,None,1000,2,1740889,347,165.285
J,2,1576879,sinestep1_catch.wav,1,118,2,1742889,344,167.285
J,2,1576879,vowelstep1_catch.wav,1,242,2,1744890,1227,169.285
J,2,1576879,vowelstep1.wav,None,1000,2,1746890,1113,171.285
J,2,1576879,vowelstep7.wav,None,1000,2,1748890,326,173.285
J,2,1576879,sinestep1.wav,None,1000,2,1750890,335,175.285
J,2,1576879,vowelstep5.wav,None,1000,2,1752889,296,177.285
J,2,1576879,vowelstep5.wav,None,1000,2,1754889,346,179.285
J,2,1576879,sinestep5.wav,None,1000,2,1756889,346,181.285
J,2,1576879,sinestep7.wav,None,1000,2,1758889,338,183.285
J,2,1576879,sinestep7.wav,None,1000,2,1760889,347,185.285
J,2,1576879,sinestep1.wav,None,1000,2,1762890,329,187.285
J,2,1576879,vowelstep1.wav,None,1000,2,1764890,335,189.285
J,2,1576879,silence.wav,None,1000,2,1766890,334,191.285
J,2,1576879,sinestep5.wav,None,1000,2,1768890,345,193.285
J,2,1576879,vowelstep5.wav,None,1000,2,1770890,345,195.285
J,2,1576879,vowelstep1.wav,None,1000,2,1772890,342,197.285
J,2,1576879,vowelstep1.wav,None,1000,2,1774890,355,199.285
J,2,1576879,sinestep3.wav,None,1000,2,1776889,324,201.285
J,2,1576879,sinestep3.wav,None,1000,2,1778890,333,203.285
J,2,1576879,silence.wav,None,1000,2,1780890,334,205.285
J,2,1576879,sinestep5.wav,None,1000,2,1782890,334,207.285
J,2,1576879,vowelstep1.wav,None,1000,2,1784890,343,209.285
J,2,1576879,vowelstep5.wav,None,1000,2,1786890,343,211.285
J,2,1576879,vowelstep3.wav,None,1000,2,1788890,344,213.285
J,2,1576879,vowelstep3.wav,None,1000,2,1790890,320,215.285
J,2,1576879,silence.wav,None,1000,2,1792890,333,217.285
J,2,1576879,sinestep1.wav,None,1000,2,1794890,332,219.285
J,2,1576879,vowelstep3.wav,None,1000,2,1796891,344,221.285
J,2,1576879,sinestep7.wav,None,1000,2,1798891,343,223.285
J,2,1576879,vowelstep7.wav,None,1000,2,1800890,342,225.285
J,2,1576879,silence.wav,None,1000,2,1802890,343,227.285
J,2,1576879,vowelstep5.wav,None,1000,2,1804890,319,229.285
J,2,1576879,silence.wav,None,1000,2,1806890,333,231.285
J,2,1576879,sinestep3.wav,None,1000,2,1808890,332,233.285
J,2,1576879,vowelstep5.wav,None,1000,2,1810890,333,235.285
J,2,1576879,vowelstep3.wav,None,1000,2,1812890,343,237.285
J,2,1576879,vowelstep5.wav,None,1000,2,1814891,343,239.285
J,2,1576879,vowelstep7.wav,None,1000,2,1816891,341,241.285
J,2,1576879,vowelstep1.wav,None,1000,2,1818891,321,243.285
J,2,1576879,sinestep7.wav,None,1000,2,1820891,332,245.285
J,2,1576879,sinestep7.wav,None,1000,2,1822891,330,247.285
J,2,1576879,silence.wav,None,1000,2,1824890,332,249.285
J,2,1576879,vowelstep1.wav,None,1000,2,1826890,341,251.285
J,2,1576879,vowelstep3_catch.wav,1,181,2,1828890,342,253.285
J,2,1576879,vowelstep1.wav,None,1000,2,1830890,1159,255.285
J,2,1576879,vowelstep5_catch.wav,1,20,2,1832891,331,257.285
J,2,1576879,silence.wav,None,1000,2,1834891,1310,259.285
J,2,1576879,sinestep5.wav,None,1000,2,1836891,328,261.285
J,2,1576879,vowelstep1.wav,None,1000,2,1838891,331,263.285
J,2,1576879,sinestep5.wav,None,1000,2,1840891,341,265.285
J,2,1576879,vowelstep3.wav,None,1000,2,1842891,340,267.285
J,2,1576879,sinestep5.wav,None,1000,2,1844891,341,269.285
J,2,1576879,sinestep7.wav,None,1000,2,1846891,351,271.285
J,2,1576879,silence.wav,None,1000,2,1848891,320,273.285
J,2,1576879,vowelstep7_catch.wav,None,1000,2,1850891,329,275.285
J,2,1576879,sinestep3.wav,None,1000,2,1852891,329,277.285
J,2,1576879,vowelstep5.wav,None,1000,2,1854891,339,279.285
J,2,1576879,silence.wav,None,1000,2,1856891,336,281.285
J,2,1576879,silence.wav,None,1000,2,1858891,341,283.285
J,2,1576879,silence.wav,None,1000,2,1860891,348,285.285
J,2,1576879,vowelstep7.wav,None,1000,2,1862891,319,287.285
J,2,1576879,sinestep3.wav,None,1000,2,1864891,330,289.285
J,2,1576879,vowelstep5_catch.wav,1,35,2,1866892,330,291.285
J,2,1576879,silence.wav,None,1000,2,1868892,1303,293.285
J,2,1576879,sinestep7.wav,None,1000,2,1870892,338,295.285
J,2,1576879,vowelstep1.wav,None,1000,2,1872891,338,297.285
J,2,1576879,silence.wav,None,1000,2,1874891,339,299.285
J,2,1576879,sinestep1.wav,None,1000,2,1876891,329,301.285
J,2,1576879,sinestep5.wav,None,1000,2,1878891,328,303.285
J,2,1576879,vowelstep5.wav,None,1000,2,1880891,328,305.285
J,2,1576879,vowelstep3.wav,None,1000,2,1882891,328,307.285
J,2,1576879,sinestep7.wav,None,1000,2,1884892,338,309.285
J,2,1576879,vowelstep7.wav,None,1000,2,1886892,334,311.285
J,2,1576879,vowelstep3_catch.wav,1,226,2,1888892,348,313.285
J,2,1576879,vowelstep1_catch.wav,1,2,2,1890892,1084,315.285
J,2,1576879,sinestep3.wav,None,1000,2,1892892,1323,317.285
J,2,1576879,sinestep1.wav,None,1000,2,1894892,328,319.285
B,3,1951278,vowelstep5.wav,None,1000,2,1951292,0,1.285
B,3,1951278,silence.wav,None,1000,2,1953292,333,3.285
B,3,1951278,sinestep7.wav,None,1000,2,1955293,332,5.285
B,3,1951278,vowelstep1_catch.wav,2,260,2,1957293,342,7.285
B,3,1951278,vowelstep7.wav,None,1000,2,1959293,1081,9.285
B,3,1951278,vowelstep3.wav,None,1000,2,1961293,322,11.285
B,3,1951278,vowelstep7.wav,None,1000,2,1963293,322,13.285
B,3,1951278,vowelstep5.wav,None,1000,2,1965293,322,15.285
B,3,1951278,vowelstep7.wav,None,1000,2,1967293,332,17.285
B,3,1951278,vowelstep3.wav,None,1000,2,1969292,331,19.285
B,3,1951278,silence.wav,None,1000,2,1971293,331,21.285
B,3,1951278,silence.wav,None,1000,2,1973293,311,23.285
B,3,1951278,sinestep5.wav,None,1000,2,1975293,338,25.285
B,3,1951278,sinestep1.wav,None,1000,2,1977293,340,27.285
B,3,1951278,vowelstep7.wav,None,1000,2,1979293,351,29.285
B,3,1951278,sinestep5.wav,None,1000,2,1981293,331,31.285
B,3,1951278,vowelstep1.wav,None,1000,2,1983293,331,33.285
B,3,1951278,vowelstep7.wav,None,1000,2,1985293,332,35.285
B,3,1951278,vowelstep3.wav,None,1000,2,1987293,327,37.285
B,3,1951278,sinestep5.wav,None,1000,2,1989294,340,39.285
B,3,1951278,vowelstep1.wav,None,1000,2,1991294,340,41.285
B,3,1951278,sinestep3.wav,None,1000,2,1993293,319,43.285
B,3,1951278,vowelstep5.wav,None,1000,2,1995293,331,45.285
B,3,1951278,vowelstep7.wav,None,1000,2,1997293,330,47.285
B,3,1951278,vowelstep3.wav,None,1000,2,1999293,330,49.285
B,3,1951278,sinestep7.wav,None,1000,2,2001293,340,51.285
B,3,1951278,sinestep3.wav,None,1000,2,2003293,339,53.285
B,3,1951278,sinestep1.wav,None,1000,2,2005293,341,55.285
B,3,1951278,sinestep1.wav,None,1000,2,2007294,320,57.285
B,3,1951278,sinestep5.wav,None,1000,2,2009294,329,59.285
B,3,1951278,vowelstep5.wav,None,1000,2,2011294,330,61.285
B,3,1951278,vowelstep3_catch.wav,2,141,2,2013294,329,63.285
B,3,1951278,vowelstep7.wav,None,1000,2,2015294,1197,65.285
B,3,1951278,sinestep1.wav,None,1000,2,2017293,339,67.285
B,3,1951278,vowelstep5.wav,None,1000,2,2019293,349,69.285
B,3,1951278,vowelstep5_catch.wav,2,148,2,2021293,345,71.285
B,3,1951278,vowelstep7.wav,None,1000,2,2023294,1170,73.285
B,3,1951278,sinestep3.wav,None,1000,2,2025294,327,75.285
B,3,1951278,vowelstep7_catch.wav,2,97,2,2027294,327,77.285
B,3,1951278,sinestep5.wav,None,1000,2,2029294,1236,79.285
B,3,1951278,vowelstep5.wav,None,1000,2,2031294,338,81.285
B,3,1951278,silence.wav,None,1000,2,2033294,338,83.285
B,3,1951278,silence.wav,None,1000,2,2035294,348,85.285
B,3,1951278,vowelstep3.wav,None,1000,2,2037294,324,87.285
B,3,1951278,silence.wav,None,1000,2,2039294,328,89.285
B,3,1951278,sinestep1.wav,None,1000,2,2041294,326,91.285
B,3,1951278,sinestep1.wav,None,1000,2,2043294,336,93.285
B,3,1951278,sinestep5.wav,None,1000,2,2045294,336,95.285
B,3,1951278,vowelstep7.wav,None,1000,2,2047294,337,97.285
B,3,1951278,sinestep5.wav,None,1000,2,2049294,345,99.285
B,3,1951278,sinestep5.wav,None,1000,2,2051294,322,101.285
B,3,1951278,silence.wav,None,1000,2,2053294,327,103.285
B,3,1951278,vowelstep1.wav,None,1000,2,2055294,317,105.285
B,3,1951278,silence.wav,None,1000,2,2057294,337,107.285
B,3,1951278,sinestep1.wav,None,1000,2,2059295,336,109.285
B,3,1951278,vowelstep7.wav,None,1000,2,2061295,334,111.285
B,3,1951278,silence.wav,None,1000,2,2063295,342,113.285
B,3,1951278,sinestep1.wav,None,1000,2,2065294,315,115.285
B,3,1951278,vowelstep3.wav,None,1000,2,2067294,325,117.285
B,3,1951278,vowelstep5.wav,None,1000,2,2069294,322,119.285
B,3,1951278,silence.wav,None,1000,2,2071294,334,121.285
B,3,1951278,sinestep3.wav,None,1000,2,2073294,332,123.285
B,3,1951278,sinestep5.wav,None,1000,2,2075294,336,125.285
B,3,1951278,silence.wav,None,1000,2,2077295,346,127.285
B,3,1951278,vowelstep5.wav,None,1000,2,2079295,325,129.285
B,3,1951278,sinestep3.wav,None,1000,2,2081295,325,131.285
B,3,1951278,sinestep5.wav,None,1000,2,2083295,321,133.285
B,3,1951278,sinestep5.wav,None,1000,2,2085295,332,135.285
B,3,1951278,sinestep7.wav,None,1000,2,2087295,326,137.285
B,3,1951278,sinestep7.wav,None,1000,2,2089295,335,139.285
B,3,1951278,vowelstep5.wav,None,1000,2,2091294,343,141.285
B,3,1951278,sinestep1.wav,None,1000,2,2093295,321,143.285
B,3,1951278,vowelstep7.wav,None,1000,2,2095295,324,145.285
B,3,1951278,sinestep7.wav,None,1000,2,2097295,320,147.285
B,3,1951278,vowelstep5.wav,None,1000,2,2099295,330,149.285
B,3,1951278,vowelstep1.wav,None,1000,2,2101295,334,151.285
B,3,1951278,sinestep3.wav,None,1000,2,2103295,328,153.285
B,3,1951278,silence.wav,None,1000,2,2105295,334,155.285
B,3,1951278,silence.wav,None,1000,2,2107295,312,157.285
B,3,1951278,sinestep7_catch.wav,2,259,2,2109295,323,159.285
B,3,1951278,vowelstep5.wav,None,1000,2,2111296,1064,161.285
B,3,1951278,sinestep7.wav,None,1000,2,2113296,322,163.285
B,3,1951278,vowelstep5.wav,None,1000,2,2115295,331,165.285
B,3,1951278,vowelstep3.wav,None,1000,2,2117295,328,167.285
B,3,1951278,silence.wav,None,1000,2,2119295,333,169.285
B,3,1951278,sinestep3.wav,None,1000,2,2121295,342,171.285
B,3,1951278,sinestep7_catch.wav,2,188,2,2123295,323,173.285
B,3,1951278,sinestep3.wav,None,1000,2,2125295,1134,175.285
B,3,1951278,sinestep5_catch.wav,2,217,2,2127295,322,177.285
B,3,1951278,vowelstep5.wav,None,1000,2,2129296,1114,179.285
B,3,1951278,silence.wav,None,1000,2,2131296,332,181.285
B,3,1951278,sinestep7.wav,None,1000,2,2133296,324,183.285
B,3,1951278,silence.wav,None,1000,2,2135296,311,185.285
B,3,1951278,sinestep3.wav,None,1000,2,2137296,320,187.285
B,3,1951278,silence.wav,None,1000,2,2139295,321,189.285
B,3,1951278,vowelstep7.wav,None,1000,2,2141295,321,191.285
B,3,1951278,vowelstep3.wav,None,1000,2,2143295,332,193.285
B,3,1951278,vowelstep3.wav,None,1000,2,2145295,330,195.285
B,3,1951278,sinestep7.wav,None,1000,2,2147296,327,197.285
B,3,1951278,sinestep7.wav,None,1000,2,2149296,341,199.285
B,3,1951278,sinestep3.wav,None,1000,2,2151296,319,201.285
B,3,1951278,sinestep3_catch.wav,2,190,2,2153296,321,203.285
B,3,1951278,sinestep1.wav,None,1000,2,2155296,1130,205.285
B,3,1951278,sinestep1.wav,None,1000,2,2157296,330,207.285
B,3,1951278,sinestep3.wav,None,1000,2,2159296,330,209.285
B,3,1951278,silence.wav,None,1000,2,2161296,330,211.285
B,3,1951278,silence.wav,None,1000,2,2163296,341,213.285
B,3,1951278,sinestep5_catch.wav,2,172,2,2165296,314,215.285
B,3,1951278,sinestep7.wav,None,1000,2,2167296,1147,217.285
B,3,1951278,sinestep7.wav,None,1000,2,2169296,318,219.285
B,3,1951278,vowelstep3.wav,None,1000,2,2171296,328,221.285
B,3,1951278,sinestep1_catch.wav,2,145,2,2173296,329,223.285
B,3,1951278,vowelstep5.wav,None,1000,2,2175296,1184,225.285
B,3,1951278,sinestep1.wav,None,1000,2,2177296,336,227.285
B,3,1951278,vowelstep1.wav,None,1000,2,2179296,320,229.285
B,3,1951278,vowelstep1.wav,None,1000,2,2181297,316,231.285
B,3,1951278,sinestep5.wav,None,1000,2,2183297,318,233.285
B,3,1951278,silence.wav,None,1000,2,2185297,327,235.285
B,3,1951278,silence.wav,None,1000,2,2187296,328,237.285
B,3,1951278,vowelstep1.wav,None,1000,2,2189296,328,239.285
B,3,1951278,vowelstep1.wav,None,1000,2,2191296,338,241.285
B,3,1951278,silence.wav,None,1000,2,2193296,318,243.285
B,3,1951278,vowelstep1_catch.wav,2,166,2,2195296,317,245.285
B,3,1951278,sinestep7.wav,None,1000,2,2197296,1152,247.285
B,3,1951278,sinestep1.wav,None,1000,2,2199297,317,249.285
B,3,1951278,vowelstep1.wav,None,1000,2,2201297,327,251.285
B,3,1951278,vowelstep3.wav,None,1000,2,2203297,327,253.285
B,3,1951278,sinestep3.wav,None,1000,2,2205297,323,255.285
B,3,1951278,silence.wav,None,1000,2,2207297,307,257.285
B,3,1951278,vowelstep3.wav,None,1000,2,2209297,317,259.285
B,3,1951278,silence.wav,None,1000,2,2211296,314,261.285
B,3,1951278,vowelstep3.wav,None,1000,2,2213296,314,263.285
B,3,1951278,sinestep5.wav,None,1000,2,2215296,325,265.285
B,3,1951278,vowelstep3_catch.wav,2,178,2,2217281,326,267.285
B,3,1951278,sinestep3.wav,None,1000,2,2219297,1146,269.285
B,3,1951278,sinestep1.wav,None,1000,2,2221297,336,271.285
B,3,1951278,vowelstep3.wav,None,1000,2,2223297,336,273.285
B,3,1951278,vowelstep1.wav,None,1000,2,2225297,347,275.285
B,3,1951278,vowelstep5_catch.wav,2,209,2,2227297,314,277.285
B,3,1951278,vowelstep1.wav,None,1000,2,2229297,1113,279.285
B,3,1951278,vowelstep5.wav,None,1000,2,2231297,327,281.285
B,3,1951278,sinestep7.wav,None,1000,2,2233281,335,283.285
B,3,1951278,vowelstep7.wav,None,1000,2,2235281,333,285.285
B,3,1951278,vowelstep1_catch.wav,2,172,2,2237297,330,287.285
B,3,1951278,sinestep1.wav,None,1000,2,2239297,1160,289.285
B,3,1951278,vowelstep1.wav,None,1000,2,2241297,345,291.285
B,3,1951278,sinestep5.wav,None,1000,2,2243297,322,293.285
B,3,1951278,vowelstep7.wav,None,1000,2,2245297,323,295.285
B,3,1951278,sinestep7.wav,None,1000,2,2247297,325,297.285
B,3,1951278,vowelstep7_catch.wav,2,132,2,2249297,334,299.285
B,3,1951278,sinestep3.wav,None,1000,2,2251281,1200,301.285
B,3,1951278,vowelstep3.wav,None,1000,2,2253281,344,303.285
B,3,1951278,sinestep5.wav,None,1000,2,2255298,344,305.285
B,3,1951278,vowelstep1.wav,None,1000,2,2257298,324,307.285
B,3,1951278,vowelstep7.wav,None,1000,2,2259297,323,309.285
B,3,1951278,vowelstep1.wav,None,1000,2,2261297,323,311.285
B,3,1951278,sinestep7.wav,None,1000,2,2263297,333,313.285
B,3,1951278,sinestep3.wav,None,1000,2,2265281,335,315.285
B,3,1951278,silence.wav,None,1000,2,2267297,334,317.285
B,3,1951278,vowelstep1.wav,None,1000,2,2269281,344,319.285
C,4,2361153,sinestep1.wav,None,1000,2,2361166,0,1.285
C,4,2361153,vowelstep1.wav,None,1000,2,2363166,342,3.285
C,4,2361153,sinestep1.wav,None,1000,2,2365166,319,5.285
C,4,2361153,sinestep1.wav,None,1000,2,2367166,324,7.285
C,4,2361153,vowelstep1.wav,None,1000,2,2369166,318,9.285
C,4,2361153,sinestep1.wav,None,1000,2,2371165,333,11.285
C,4,2361153,sinestep7.wav,None,1000,2,2373166,329,13.285
C,4,2361153,vowelstep7.wav,None,1000,2,2375166,332,15.285
C,4,2361153,vowelstep3.wav,None,1000,2,2377166,341,17.285
C,4,2361153,vowelstep5.wav,None,1000,2,2379166,342,19.285
C,4,2361153,silence.wav,None,1000,2,2381166,334,21.285
C,4,2361153,sinestep3.wav,None,1000,2,2383166,351,23.285
C,4,2361153,vowelstep5.wav,None,1000,2,2385166,327,25.285
C,4,2361153,sinestep1.wav,None,1000,2,2387166,332,27.285
C,4,2361153,vowelstep1.wav,None,1000,2,2389166,330,29.285
C,4,2361153,vowelstep7.wav,None,1000,2,2391167,332,31.285
C,4,2361153,vowelstep3.wav,None,1000,2,2393167,340,33.285
C,4,2361153,sinestep1.wav,None,1000,2,2395166,341,35.285
C,4,2361153,sinestep5.wav,None,1000,2,2397166,320,37.285
C,4,2361153,silence.wav,None,1000,2,2399166,328,39.285
C,4,2361153,vowelstep7.wav,None,1000,2,2401166,329,41.285
C,4,2361153,vowelstep5.wav,None,1000,2,2403166,331,43.285
C,4,2361153,sinestep5.wav,None,1000,2,2405166,330,45.285
C,4,2361153,silence.wav,None,1000,2,2407166,341,47.285
C,4,2361153,sinestep5.wav,None,1000,2,2409167,341,49.285
C,4,2361153,sinestep1.wav,None,1000,2,2411167,340,51.285
C,4,2361153,silence.wav,None,1000,2,2413167,327,53.285
C,4,2361153,vowelstep1.wav,None,1000,2,2415167,330,55.285
C,4,2361153,vowelstep1.wav,None,1000,2,2417167,324,57.285
C,4,2361153,sinestep1.wav,None,1000,2,2419166,328,59.285
C,4,2361153,silence.wav,None,1000,2,2421166,339,61.285
C,4,2361153,vowelstep5.wav,None,1000,2,2423166,340,63.285
C,4,2361153,vowelstep3.wav,None,1000,2,2425166,349,65.285
C,4,2361153,vowelstep3.wav,None,1000,2,2427167,319,67.285
C,4,2361153,vowelstep7.wav,None,1000,2,2429167,328,69.285
C,4,2361153,silence.wav,None,1000,2,2431167,328,71.285
C,4,2361153,vowelstep3.wav,None,1000,2,2433167,325,73.285
C,4,2361153,silence.wav,None,1000,2,2435167,338,75.285
C,4,2361153,sinestep5.wav,None,1000,2,2437167,339,77.285
C,4,2361153,vowelstep7.wav,None,1000,2,2439167,339,79.285
C,4,2361153,vowelstep1_catch.wav,1,95,2,2441167,319,81.285
C,4,2361153,vowelstep3.wav,None,1000,2,2443168,1231,83.285
C,4,2361153,sinestep7.wav,None,1000,2,2445167,328,85.285
C,4,2361153,vowelstep3.wav,None,1000,2,2447167,324,87.285
C,4,2361153,sinestep1.wav,None,1000,2,2449167,338,89.285
C,4,2361153,sinestep7.wav,None,1000,2,2451167,336,91.285
C,4,2361153,sinestep7.wav,None,1000,2,2453167,348,93.285
C,4,2361153,sinestep3.wav,None,1000,2,2455167,346,95.285
C,4,2361153,vowelstep3_catch.wav,1,129,2,2457167,326,97.285
C,4,2361153,sinestep5.wav,None,1000,2,2459167,1198,99.285
C,4,2361153,sinestep5.wav,None,1000,2,2461168,328,101.285
C,4,2361153,vowelstep3.wav,None,1000,2,2463168,333,103.285
C,4,2361153,vowelstep5.wav,None,1000,2,2465168,337,105.285
C,4,2361153,sinestep1.wav,None,1000,2,2467168,335,107.285
C,4,2361153,sinestep3.wav,None,1000,2,2469167,316,109.285
C,4,2361153,vowelstep5.wav,None,1000,2,2471167,324,111.285
C,4,2361153,vowelstep7.wav,None,1000,2,2473167,327,113.285
C,4,2361153,vowelstep1.wav,None,1000,2,2475167,326,115.285
C,4,2361153,sinestep7.wav,None,1000,2,2477167,333,117.285
C,4,2361153,sinestep3.wav,None,1000,2,2479168,336,119.285
C,4,2361153,vowelstep1.wav,None,1000,2,2481168,330,121.285
C,4,2361153,vowelstep1.wav,None,1000,2,2483168,345,123.285
C,4,2361153,sinestep3.wav,None,1000,2,2485168,324,125.285
C,4,2361153,silence.wav,None,1000,2,2487168,325,127.285
C,4,2361153,silence.wav,None,1000,2,2489168,325,129.285
C,4,2361153,vowelstep5_catch.wav,2,210,2,2491168,335,131.285
C,4,2361153,vowelstep5.wav,None,1000,2,2493167,1125,133.285
C,4,2361153,silence.wav,None,1000,2,2495167,332,135.285
C,4,2361153,sinestep1.wav,None,1000,2,2497168,345,137.285
C,4,2361153,vowelstep7.wav,None,1000,2,2499168,323,139.285
C,4,2361153,sinestep7.wav,None,1000,2,2501168,324,141.285
C,4,2361153,silence.wav,None,1000,2,2503168,324,143.285
C,4,2361153,silence.wav,None,1000,2,2505168,334,145.285
C,4,2361153,sinestep7.wav,None,1000,2,2507168,334,147.285
C,4,2361153,vowelstep1.wav,None,1000,2,2509168,334,149.285
C,4,2361153,vowelstep5.wav,None,1000,2,2511168,344,151.285
C,4,2361153,vowelstep5.wav,None,1000,2,2513169,323,153.285
C,4,2361153,vowelstep7.wav,None,1000,2,2515169,323,155.285
C,4,2361153,sinestep7.wav,None,1000,2,2517168,323,157.285
C,4,2361153,vowelstep1.wav,None,1000,2,2519168,332,159.285
C,4,2361153,vowelstep3.wav,None,1000,2,2521168,333,161.285
C,4,2361153,sinestep5.wav,None,1000,2,2523168,333,163.285
C,4,2361153,sinestep7.wav,None,1000,2,2525168,343,165.285
C,4,2361153,sinestep1.wav,None,1000,2,2527168,320,167.285
C,4,2361153,sinestep7.wav,None,1000,2,2529168,323,169.285
C,4,2361153,sinestep3.wav,None,1000,2,2531169,318,171.285
C,4,2361153,silence.wav,None,1000,2,2533169,333,173.285
C,4,2361153,vowelstep7.wav,None,1000,2,2535169,332,175.285
C,4,2361153,sinestep7.wav,None,1000,2,2537169,333,177.285
C,4,2361153,sinestep5.wav,None,1000,2,2539169,342,179.285
C,4,2361153,vowelstep7.wav,None,1000,2,2541168,312,181.285
C,4,2361153,vowelstep5.wav,None,1000,2,2543168,322,183.285
C,4,2361153,vowelstep3.wav,None,1000,2,2545168,323,185.285
C,4,2361153,vowelstep7_catch.wav,2,178,2,2547168,327,187.285
C,4,2361153,vowelstep3.wav,None,1000,2,2549169,1153,189.285
C,4,2361153,vowelstep5.wav,None,1000,2,2551169,332,191.285
C,4,2361153,vowelstep7.wav,None,1000,2,2553169,329,193.285
C,4,2361153,vowelstep7_catch.wav,2,144,2,2555169,341,195.285
C,4,2361153,vowelstep5_catch.wav,2,77,2,2557169,1177,197.285
C,4,2361153,sinestep5.wav,None,1000,2,2559169,1237,199.285
C,4,2361153,sinestep3.wav,None,1000,2,2561169,322,201.285
C,4,2361153,vowelstep3_catch.wav,2,70,2,2563169,326,203.285
C,4,2361153,vowelstep1_catch.wav,2,72,2,2565168,1255,205.285
C,4,2361153,vowelstep5.wav,None,1000,2,2567169,1268,207.285
C,4,2361153,vowelstep1.wav,None,1000,2,2569169,309,209.285
C,4,2361153,sinestep1_catch.wav,2,64,2,2571169,317,211.285
C,4,2361153,sinestep3_catch.wav,2,13,2,2573169,1256,213.285
C,4,2361153,sinestep1.wav,None,1000,2,2575169,1316,215.285
C,4,2361153,vowelstep3.wav,None,1000,2,2577169,330,217.285
C,4,2361153,sinestep3.wav,None,1000,2,2579169,330,219.285
C,4,2361153,vowelstep5.wav,None,1000,2,2581169,330,221.285
C,4,2361153,sinestep7.wav,None,1000,2,2583170,319,223.285
C,4,2361153,sinestep1.wav,None,1000,2,2585170,316,225.285
C,4,2361153,sinestep5_catch.wav,2,143,2,2587170,319,227.285
C,4,2361153,vowelstep7.wav,None,1000,2,2589169,1171,229.285
C,4,2361153,vowelstep3.wav,None,1000,2,2591169,329,231.285
C,4,2361153,silence.wav,None,1000,2,2593169,325,233.285
C,4,2361153,vowelstep1.wav,None,1000,2,2595169,329,235.285
C,4,2361153,sinestep5.wav,None,1000,2,2597169,338,237.285
C,4,2361153,sinestep1.wav,None,1000,2,2599169,319,239.285
C,4,2361153,vowelstep7.wav,None,1000,2,2601170,320,241.285
C,4,2361153,sinestep3.wav,None,1000,2,2603170,318,243.285
C,4,2361153,sinestep3.wav,None,1000,2,2605170,327,245.285
C,4,2361153,sinestep5.wav,None,1000,2,2607170,324,247.285
C,4,2361153,vowelstep3.wav,None,1000,2,2609170,328,249.285
C,4,2361153,sinestep3.wav,None,1000,2,2611170,327,251.285
C,4,2361153,silence.wav,None,1000,2,2613169,318,253.285
C,4,2361153,sinestep3.wav,None,1000,2,2615169,337,255.285
C,4,2361153,vowelstep1.wav,None,1000,2,2617169,317,257.285
C,4,2361153,silence.wav,None,1000,2,2619170,328,259.285
C,4,2361153,vowelstep1.wav,None,1000,2,2621170,327,261.285
C,4,2361153,silence.wav,None,1000,2,2623170,327,263.285
C,4,2361153,sinestep7.wav,None,1000,2,2625170,326,265.285
C,4,2361153,sinestep3.wav,None,1000,2,2627170,337,267.285
C,4,2361153,vowelstep1.wav,None,1000,2,2629170,337,269.285
C,4,2361153,sinestep7.wav,None,1000,2,2631170,347,271.285
C,4,2361153,sinestep7_catch.wav,2,218,2,2633170,318,273.285
C,4,2361153,vowelstep5.wav,None,1000,2,2635170,1109,275.285
C,4,2361153,silence.wav,None,1000,2,2637170,325,277.285
C,4,2361153,silence.wav,None,1000,2,2639170,336,279.285
C,4,2361153,sinestep3.wav,None,1000,2,2641170,336,281.285
C,4,2361153,vowelstep7.wav,None,1000,2,2643170,336,283.285
C,4,2361153,sinestep5.wav,None,1000,2,2645170,346,285.285
C,4,2361153,sinestep5.wav,None,1000,2,2647170,316,287.285
C,4,2361153,vowelstep3.wav,None,1000,2,2649170,326,289.285
C,4,2361153,sinestep3.wav,None,1000,2,2651170,326,291.285
C,4,2361153,silence.wav,None,1000,2,2653171,332,293.285
C,4,2361153,silence.wav,None,1000,2,2655171,335,295.285
C,4,2361153,vowelstep7.wav,None,1000,2,2657171,331,297.285
C,4,2361153,silence.wav,None,1000,2,2659171,345,299.285
C,4,2361153,vowelstep5.wav,None,1000,2,2661170,315,301.285
C,4,2361153,sinestep5.wav,None,1000,2,2663170,325,303.285
C,4,2361153,silence.wav,None,1000,2,2665170,325,305.285
C,4,2361153,silence.wav,None,1000,2,2667170,335,307.285
C,4,2361153,silence.wav,None,1000,2,2669170,335,309.285
C,4,2361153,sinestep7_catch.wav,2,300,2,2671171,331,311.285
C,4,2361153,sinestep7.wav,None,1000,2,2673171,1034,313.285
C,4,2361153,sinestep5_catch.wav,2,92,2,2675171,311,315.285
C,4,2361153,sinestep5.wav,None,1000,2,2677171,1232,317.285
C,4,2361153,sinestep3_catch.wav,2,63,2,2679171,324,319.285
D,5,2752259,sinestep5.wav,2,283,2,2752272,0,1.285
D,5,2752259,vowelstep1_catch.wav,2,262,2,2754272,1053,3.285
D,5,2752259,sinestep7.wav,None,1000,2,2756272,1053,5.285
D,5,2752259,vowelstep3.wav,None,1000,2,2758272,319,7.285
D,5,2752259,vowelstep3_catch.wav,2,168,2,2760272,324,9.285
D,5,2752259,vowelstep5_catch.wav,2,93,2,2762272,1154,11.285
D,5,2752259,sinestep7.wav,None,1000,2,2764272,1241,13.285
D,5,2752259,silence.wav,None,1000,2,2766272,334,15.285
D,5,2752259,vowelstep7_catch.wav,2,71,2,2768272,335,17.285
D,5,2752259,vowelstep7.wav,None,1000,2,2770272,1274,19.285
D,5,2752259,vowelstep3.wav,None,1000,2,2772272,323,21.285
D,5,2752259,vowelstep7_catch.wav,2,109,2,2774272,325,23.285
D,5,2752259,vowelstep5.wav,None,1000,2,2776273,1211,25.285
D,5,2752259,sinestep7.wav,None,1000,2,2778273,334,27.285
D,5,2752259,silence.wav,None,1000,2,2780273,332,29.285
D,5,2752259,vowelstep1.wav,None,1000,2,2782272,343,31.285
D,5,2752259,vowelstep1.wav,None,1000,2,2784272,311,33.285
D,5,2752259,vowelstep7.wav,None,1000,2,2786272,320,35.285
D,5,2752259,vowelstep3.wav,None,1000,2,2788272,324,37.285
D,5,2752259,sinestep3.wav,None,1000,2,2790272,330,39.285
D,5,2752259,sinestep1.wav,None,1000,2,2792272,334,41.285
D,5,2752259,vowelstep1.wav,None,1000,2,2794273,331,43.285
D,5,2752259,vowelstep1.wav,None,1000,2,2796273,329,45.285
D,5,2752259,sinestep7.wav,None,1000,2,2798273,342,47.285
D,5,2752259,sinestep3.wav,None,1000,2,2800273,322,49.285
D,5,2752259,vowelstep5_catch.wav,2,171,2,2802273,322,51.285
D,5,2752259,sinestep7.wav,None,1000,2,2804273,1151,53.285
D,5,2752259,vowelstep5.wav,None,1000,2,2806272,333,55.285
D,5,2752259,sinestep3.wav,None,1000,2,2808272,332,57.285
D,5,2752259,sinestep7.wav,None,1000,2,2810273,333,59.285
D,5,2752259,vowelstep3.wav,None,1000,2,2812273,341,61.285
D,5,2752259,vowelstep3.wav,None,1000,2,2814273,321,63.285
D,5,2752259,vowelstep3_catch.wav,2,107,2,2816273,276,65.285
D,5,2752259,silence.wav,None,1000,2,2818273,1214,67.285
D,5,2752259,vowelstep7.wav,None,1000,2,2820273,332,69.285
D,5,2752259,silence.wav,None,1000,2,2822273,327,71.285
D,5,2752259,sinestep1.wav,None,1000,2,2824273,329,73.285
D,5,2752259,vowelstep5.wav,None,1000,2,2826273,310,75.285
D,5,2752259,vowelstep1.wav,None,1000,2,2828274,319,77.285
D,5,2752259,sinestep7.wav,None,1000,2,2830273,320,79.285
D,5,2752259,vowelstep1.wav,None,1000,2,2832273,320,81.285
D,5,2752259,sinestep7.wav,None,1000,2,2834273,330,83.285
D,5,2752259,vowelstep7.wav,None,1000,2,2836273,330,85.285
D,5,2752259,vowelstep5.wav,None,1000,2,2838273,330,87.285
D,5,2752259,vowelstep1.wav,None,1000,2,2840273,330,89.285
D,5,2752259,sinestep5.wav,None,1000,2,2842273,321,91.285
D,5,2752259,sinestep5.wav,None,1000,2,2844273,320,93.285
D,5,2752259,vowelstep3.wav,None,1000,2,2846274,315,95.285
D,5,2752259,silence.wav,None,1000,2,2848274,329,97.285
D,5,2752259,sinestep1.wav,None,1000,2,2850274,330,99.285
D,5,2752259,sinestep1.wav,None,1000,2,2852274,326,101.285
D,5,2752259,sinestep3.wav,None,1000,2,2854273,327,103.285
D,5,2752259,vowelstep1.wav,None,1000,2,2856273,318,105.285
D,5,2752259,sinestep7.wav,None,1000,2,2858273,339,107.285
D,5,2752259,vowelstep3.wav,None,1000,2,2860273,349,109.285
D,5,2752259,silence.wav,None,1000,2,2862273,329,111.285
D,5,2752259,vowelstep5.wav,None,1000,2,2864274,328,113.285
D,5,2752259,vowelstep1.wav,None,1000,2,2866274,328,115.285
D,5,2752259,vowelstep1_catch.wav,2,137,2,2868274,327,117.285
D,5,2752259,vowelstep7.wav,None,1000,2,2870274,1197,119.285
D,5,2752259,sinestep5.wav,None,1000,2,2872274,339,121.285
D,5,2752259,vowelstep7.wav,None,1000,2,2874274,347,123.285
D,5,2752259,sinestep1.wav,None,1000,2,2876274,349,125.285
D,5,2752259,sinestep1.wav,None,1000,2,2878273,326,127.285
D,5,2752259,vowelstep3.wav,None,1000,2,2880274,328,129.285
D,5,2752259,sinestep1.wav,None,1000,2,2882274,327,131.285
D,5,2752259,silence.wav,None,1000,2,2884274,338,133.285
D,5,2752259,sinestep3.wav,None,1000,2,2886274,337,135.285
D,5,2752259,silence.wav,None,1000,2,2888274,348,137.285
D,5,2752259,vowelstep3.wav,None,1000,2,2890274,318,139.285
D,5,2752259,vowelstep5.wav,None,1000,2,2892274,327,141.285
D,5,2752259,silence.wav,None,1000,2,2894274,327,143.285
D,5,2752259,sinestep5.wav,None,1000,2,2896274,335,145.285
D,5,2752259,sinestep5.wav,None,1000,2,2898275,337,147.285
D,5,2752259,sinestep1.wav,None,1000,2,2900275,336,149.285
D,5,2752259,vowelstep5.wav,None,1000,2,2902274,336,151.285
D,5,2752259,vowelstep5.wav,None,1000,2,2904274,344,153.285
D,5,2752259,sinestep1_catch.wav,2,207,2,2906274,326,155.285
D,5,2752259,sinestep5.wav,None,1000,2,2908274,1114,157.285
D,5,2752259,vowelstep3.wav,None,1000,2,2910274,324,159.285
D,5,2752259,vowelstep7.wav,None,1000,2,2912274,336,161.285
D,5,2752259,vowelstep3.wav,None,1000,2,2914274,336,163.285
D,5,2752259,sinestep3.wav,None,1000,2,2916275,336,165.285
D,5,2752259,sinestep1.wav,None,1000,2,2918275,315,167.285
D,5,2752259,silence.wav,None,1000,2,2920275,324,169.285
D,5,2752259,sinestep1.wav,None,1000,2,2922275,325,171.285
D,5,2752259,vowelstep1.wav,None,1000,2,2924275,335,173.285
D,5,2752259,vowelstep3.wav,None,1000,2,2926274,335,175.285
D,5,2752259,silence.wav,None,1000,2,2928274,335,177.285
D,5,2752259,sinestep7.wav,None,1000,2,2930274,334,179.285
D,5,2752259,silence.wav,None,1000,2,2932274,345,181.285
D,5,2752259,vowelstep7.wav,None,1000,2,2934275,325,183.285
D,5,2752259,sinestep3.wav,None,1000,2,2936275,323,185.285
D,5,2752259,vowelstep1.wav,None,1000,2,2938275,324,187.285
D,5,2752259,sinestep7.wav,None,1000,2,2940275,333,189.285
D,5,2752259,silence.wav,None,1000,2,2942275,332,191.285
D,5,2752259,sinestep1.wav,None,1000,2,2944275,334,193.285
D,5,2752259,sinestep3.wav,None,1000,2,2946275,344,195.285
D,5,2752259,sinestep5.wav,None,1000,2,2948275,324,197.285
D,5,2752259,vowelstep3.wav,None,1000,2,2950275,320,199.285
D,5,2752259,sinestep5.wav,None,1000,2,2952275,322,201.285
D,5,2752259,sinestep5.wav,None,1000,2,2954275,334,203.285
D,5,2752259,sinestep3.wav,None,1000,2,2956275,333,205.285
D,5,2752259,sinestep3.wav,None,1000,2,2958275,333,207.285
D,5,2752259,sinestep5.wav,None,1000,2,2960275,342,209.285
D,5,2752259,sinestep3_catch.wav,2,119,2,2962275,322,211.285
D,5,2752259,vowelstep7.wav,None,1000,2,2964275,1203,213.285
D,5,2752259,sinestep1.wav,None,1000,2,2966275,323,215.285
D,5,2752259,sinestep7.wav,None,1000,2,2968276,332,217.285
D,5,2752259,vowelstep1.wav,None,1000,2,2970276,332,219.285
D,5,2752259,sinestep5.wav,None,1000,2,2972276,332,221.285
D,5,2752259,silence.wav,None,1000,2,2974275,332,223.285
D,5,2752259,sinestep5_catch.wav,2,117,2,2976275,322,225.285
D,5,2752259,sinestep5.wav,None,1000,2,2978275,1199,227.285
D,5,2752259,silence.wav,None,1000,2,2980275,322,229.285
D,5,2752259,vowelstep7.wav,None,1000,2,2982275,321,231.285
D,5,2752259,sinestep3.wav,None,1000,2,2984275,332,233.285
D,5,2752259,vowelstep5.wav,None,1000,2,2986276,332,235.285
D,5,2752259,vowelstep7.wav,None,1000,2,2988276,340,237.285
D,5,2752259,vowelstep5.wav,None,1000,2,2990276,311,239.285
D,5,2752259,silence.wav,None,1000,2,2992276,321,241.285
D,5,2752259,silence.wav,None,1000,2,2994276,320,243.285
D,5,2752259,silence.wav,None,1000,2,2996276,331,245.285
D,5,2752259,sinestep7.wav,None,1000,2,2998276,320,247.285
D,5,2752259,sinestep5.wav,None,1000,2,3000275,326,249.285
D,5,2752259,sinestep7_catch.wav,2,199,2,3002275,329,251.285
D,5,2752259,vowelstep1.wav,None,1000,2,3004276,1120,253.285
D,5,2752259,vowelstep1.wav,None,1000,2,3006276,320,255.285
D,5,2752259,vowelstep3.wav,None,1000,2,3008276,319,257.285
D,5,2752259,silence.wav,None,1000,2,3010276,320,259.285
D,5,2752259,sinestep5.wav,None,1000,2,3012276,330,261.285
D,5,2752259,vowelstep7.wav,None,1000,2,3014276,326,263.285
D,5,2752259,vowelstep3.wav,None,1000,2,3016276,330,265.285
D,5,2752259,vowelstep7.wav,None,1000,2,3018276,308,267.285
D,5,2752259,vowelstep5.wav,None,1000,2,3020277,319,269.285
D,5,2752259,sinestep1.wav,None,1000,2,3022276,319,271.285
D,5,2752259,sinestep7.wav,None,1000,2,3024276,318,273.285
D,5,2752259,sinestep3.wav,None,1000,2,3026276,325,275.285
D,5,2752259,silence.wav,None,1000,2,3028276,328,277.285
D,5,2752259,sinestep7.wav,None,1000,2,3030276,327,279.285
D,5,2752259,vowelstep5.wav,None,1000,2,3032276,308,281.285
D,5,2752259,sinestep1.wav,None,1000,2,3034276,319,283.285
D,5,2752259,vowelstep1.wav,None,1000,2,3036276,319,285.285
D,5,2752259,sinestep1.wav,None,1000,2,3038277,319,287.285
D,5,2752259,vowelstep5.wav,None,1000,2,3040277,327,289.285
D,5,2752259,silence.wav,None,1000,2,3042277,328,291.285
D,5,2752259,sinestep3.wav,None,1000,2,3044277,322,293.285
D,5,2752259,vowelstep5.wav,None,1000,2,3046277,338,295.285
D,5,2752259,silence.wav,None,1000,2,3048276,312,297.285
D,5,2752259,sinestep3.wav,None,1000,2,3050276,317,299.285
D,5,2752259,vowelstep7.wav,None,1000,2,3052276,316,301.285
D,5,2752259,sinestep7_catch.wav,2,160,2,3054276,323,303.285
D,5,2752259,sinestep5_catch.wav,2,306,2,3056277,1166,305.285
D,5,2752259,sinestep3.wav,None,1000,2,3058277,1016,307.285
D,5,2752259,vowelstep5.wav,None,1000,2,3060277,306,309.285
D,5,2752259,silence.wav,None,1000,2,3062277,317,311.285
D,5,2752259,sinestep3_catch.wav,2,340,2,3064277,317,313.285
D,5,2752259,silence.wav,None,1000,2,3066277,976,315.285
D,5,2752259,vowelstep7.wav,None,1000,2,3068277,327,317.285
D,5,2752259,silence.wav,None,1000,2,3070277,326,319.285
E,6,3144753,vowelstep7.wav,None,1000,2,3144762,0,1.285
E,6,3144753,sinestep3.wav,None,1000,2,3146762,334,3.285
E,6,3144753,sinestep5.wav,None,1000,2,3148762,335,5.285
E,6,3144753,sinestep1.wav,None,1000,2,3150762,341,7.285
E,6,3144753,sinestep5.wav,None,1000,2,3152761,326,9.285
E,6,3144753,silence.wav,None,1000,2,3154761,324,11.285
E,6,3144753,vowelstep1.wav,None,1000,2,3156761,325,13.285
E,6,3144753,vowelstep7.wav,None,1000,2,3158761,333,15.285
E,6,3144753,vowelstep1.wav,None,1000,2,3160762,335,17.285
E,6,3144753,sinestep1_catch.wav,2,194,2,3162762,335,19.285
E,6,3144753,vowelstep5.wav,None,1000,2,3164762,1150,21.285
E,6,3144753,sinestep5.wav,None,1000,2,3166762,324,23.285
E,6,3144753,vowelstep5.wav,None,1000,2,3168762,324,25.285
E,6,3144753,vowelstep3.wav,None,1000,2,3170762,325,27.285
E,6,3144753,sinestep1.wav,None,1000,2,3172762,108,29.285
E,6,3144753,vowelstep5.wav,None,1000,2,3174762,331,31.285
E,6,3144753,silence.wav,None,1000,2,3176761,335,33.285
E,6,3144753,silence.wav,None,1000,2,3178762,343,35.285
E,6,3144753,sinestep3.wav,None,1000,2,3180762,340,37.285
E,6,3144753,sinestep3.wav,None,1000,2,3182762,345,39.285
E,6,3144753,sinestep3.wav,None,1000,2,3184762,339,41.285
E,6,3144753,sinestep1.wav,None,1000,2,3186762,334,43.285
E,6,3144753,vowelstep1.wav,None,1000,2,3188762,333,45.285
E,6,3144753,sinestep1.wav,None,1000,2,3190762,332,47.285
E,6,3144753,vowelstep7.wav,None,1000,2,3192762,333,49.285
E,6,3144753,vowelstep5.wav,None,1000,2,3194763,344,51.285
E,6,3144753,sinestep7.wav,None,1000,2,3196763,343,53.285
E,6,3144753,sinestep1.wav,None,1000,2,3198763,343,55.285
E,6,3144753,vowelstep5.wav,None,1000,2,3200762,333,57.285
E,6,3144753,sinestep3.wav,None,1000,2,3202762,333,59.285
E,6,3144753,vowelstep1.wav,None,1000,2,3204762,334,61.285
E,6,3144753,vowelstep5.wav,None,1000,2,3206762,333,63.285
E,6,3144753,vowelstep3.wav,None,1000,2,3208762,342,65.285
E,6,3144753,sinestep1.wav,None,1000,2,3210762,343,67.285
E,6,3144753,vowelstep3.wav,None,1000,2,3212763,352,69.285
E,6,3144753,silence.wav,None,1000,2,3214763,319,71.285
E,6,3144753,vowelstep3.wav,None,1000,2,3216763,332,73.285
E,6,3144753,sinestep3_catch.wav,2,255,2,3218763,331,75.285
E,6,3144753,sinestep3.wav,None,1000,2,3220763,1076,77.285
E,6,3144753,vowelstep3.wav,None,1000,2,3222763,341,79.285
E,6,3144753,vowelstep7.wav,None,1000,2,3224762,340,81.285
E,6,3144753,silence.wav,None,1000,2,3226762,341,83.285
E,6,3144753,sinestep3.wav,None,1000,2,3228762,351,85.285
E,6,3144753,silence.wav,None,1000,2,3230763,331,87.285
E,6,3144753,sinestep1.wav,None,1000,2,3232763,331,89.285
E,6,3144753,sinestep5_catch.wav,2,130,2,3234763,331,91.285
E,6,3144753,vowelstep3.wav,None,1000,2,3236763,1210,93.285
E,6,3144753,sinestep5.wav,None,1000,2,3238763,341,95.285
E,6,3144753,vowelstep7.wav,None,1000,2,3240763,351,97.285
E,6,3144753,sinestep1.wav,None,1000,2,3242763,320,99.285
E,6,3144753,sinestep5.wav,None,1000,2,3244763,326,101.285
E,6,3144753,sinestep5.wav,None,1000,2,3246763,331,103.285
E,6,3144753,vowelstep7.wav,None,1000,2,3248763,325,105.285
E,6,3144753,vowelstep3.wav,None,1000,2,3250763,320,107.285
E,6,3144753,vowelstep7.wav,None,1000,2,3252763,338,109.285
E,6,3144753,sinestep5.wav,None,1000,2,3254763,340,111.285
E,6,3144753,vowelstep3.wav,None,1000,2,3256763,349,113.285
E,6,3144753,vowelstep7.wav,None,1000,2,3258763,329,115.285
E,6,3144753,sinestep3.wav,None,1000,2,3260763,330,117.285
E,6,3144753,vowelstep7.wav,None,1000,2,3262763,326,119.285
E,6,3144753,silence.wav,None,1000,2,3264764,337,121.285
E,6,3144753,silence.wav,None,1000,2,3266764,338,123.285
E,6,3144753,sinestep7.wav,None,1000,2,3268764,336,125.285
E,6,3144753,sinestep7_catch.wav,2,128,2,3270764,348,127.285
E,6,3144753,sinestep7.wav,None,1000,2,3272763,1200,129.285
E,6,3144753,silence.wav,None,1000,2,3274763,328,131.285
E,6,3144753,sinestep7_catch.wav,2,112,2,3276763,322,133.285
E,6,3144753,sinestep7.wav,None,1000,2,3278763,1222,135.285
E,6,3144753,sinestep5_catch.wav,None,1000,2,3280763,338,137.285
E,6,3144753,sinestep1.wav,None,1000,2,3282764,337,139.285
E,6,3144753,sinestep1.wav,None,1000,2,3284764,346,141.285
E,6,3144753,sinestep1.wav,None,1000,2,3286764,317,143.285
E,6,3144753,sinestep3.wav,None,1000,2,3288764,327,145.285
E,6,3144753,vowelstep5.wav,None,1000,2,3290764,327,147.285
E,6,3144753,silence.wav,None,1000,2,3292764,337,149.285
E,6,3144753,sinestep3_catch.wav,2,119,2,3294764,295,151.285
E,6,3144753,silence.wav,None,1000,2,3296763,1218,153.285
E,6,3144753,sinestep7.wav,None,1000,2,3298763,337,155.285
E,6,3144753,sinestep5.wav,None,1000,2,3300764,327,157.285
E,6,3144753,silence.wav,None,1000,2,3302764,327,159.285
E,6,3144753,vowelstep5.wav,None,1000,2,3304764,325,161.285
E,6,3144753,vowelstep1.wav,None,1000,2,3306764,336,163.285
E,6,3144753,vowelstep3.wav,None,1000,2,3308764,335,165.285
E,6,3144753,sinestep5.wav,None,1000,2,3310764,333,167.285
E,6,3144753,sinestep7.wav,None,1000,2,3312764,313,169.285
E,6,3144753,vowelstep1.wav,None,1000,2,3314764,325,171.285
E,6,3144753,vowelstep7.wav,None,1000,2,3316764,326,173.285
E,6,3144753,sinestep3.wav,None,1000,2,3318765,325,175.285
E,6,3144753,silence.wav,None,1000,2,3320764,335,177.285
E,6,3144753,sinestep1_catch.wav,2,349,2,3322764,335,179.285
E,6,3144753,sinestep7.wav,None,1000,2,3324764,984,181.285
E,6,3144753,vowelstep1.wav,None,1000,2,3326764,332,183.285
E,6,3144753,sinestep5.wav,None,1000,2,3328764,325,185.285
E,6,3144753,sinestep5.wav,None,1000,2,3330764,324,187.285
E,6,3144753,vowelstep1.wav,None,1000,2,3332764,325,189.285
E,6,3144753,sinestep7.wav,None,1000,2,3334765,325,191.285
E,6,3144753,sinestep3.wav,None,1000,2,3336765,334,193.285
E,6,3144753,sinestep7.wav,None,1000,2,3338765,334,195.285
E,6,3144753,silence.wav,None,1000,2,3340765,343,197.285
E,6,3144753,vowelstep1.wav,None,1000,2,3342765,321,199.285
E,6,3144753,sinestep1.wav,None,1000,2,3344764,324,201.285
E,6,3144753,vowelstep1.wav,None,1000,2,3346764,323,203.285
E,6,3144753,vowelstep1.wav,None,1000,2,3348764,324,205.285
E,6,3144753,vowelstep1_catch.wav,2,296,2,3350764,333,207.285
E,6,3144753,vowelstep1.wav,None,1000,2,3352765,1037,209.285
E,6,3144753,vowelstep1.wav,None,1000,2,3354765,333,211.285
E,6,3144753,silence.wav,None,1000,2,3356765,309,213.285
E,6,3144753,sinestep7.wav,None,1000,2,3358765,323,215.285
E,6,3144753,vowelstep7.wav,None,1000,2,3360765,322,217.285
E,6,3144753,vowelstep3_catch.wav,2,109,2,3362765,324,219.285
E,6,3144753,vowelstep5.wav,None,1000,2,3364765,1224,221.285
E,6,3144753,sinestep3.wav,None,1000,2,3366765,333,223.285
E,6,3144753,silence.wav,None,1000,2,3368764,332,225.285
E,6,3144753,sinestep1.wav,None,1000,2,3370765,313,227.285
E,6,3144753,sinestep5.wav,None,1000,2,3372765,320,229.285
E,6,3144753,sinestep5.wav,None,1000,2,3374765,322,231.285
E,6,3144753,sinestep3.wav,None,1000,2,3376765,322,233.285
E,6,3144753,sinestep5.wav,None,1000,2,3378765,332,235.285
E,6,3144753,vowelstep3.wav,None,1000,2,3380765,332,237.285
E,6,3144753,sinestep7.wav,None,1000,2,3382765,332,239.285
E,6,3144753,sinestep7.wav,None,1000,2,3384765,311,241.285
E,6,3144753,silence.wav,None,1000,2,3386765,320,243.285
E,6,3144753,sinestep3.wav,None,1000,2,3388766,318,245.285
E,6,3144753,sinestep3.wav,None,1000,2,3390766,321,247.285
E,6,3144753,vowelstep3.wav,None,1000,2,3392766,326,249.285
E,6,3144753,silence.wav,None,1000,2,3394765,331,251.285
E,6,3144753,sinestep7.wav,None,1000,2,3396765,329,253.285
E,6,3144753,silence.wav,None,1000,2,3398765,341,255.285
E,6,3144753,vowelstep7.wav,None,1000,2,3400765,321,257.285
E,6,3144753,vowelstep3.wav,None,1000,2,3402765,321,259.285
E,6,3144753,silence.wav,None,1000,2,3404766,321,261.285
E,6,3144753,vowelstep3.wav,None,1000,2,3406766,316,263.285
E,6,3144753,vowelstep1.wav,None,1000,2,3408766,330,265.285
E,6,3144753,vowelstep5.wav,None,1000,2,3410766,328,267.285
E,6,3144753,silence.wav,None,1000,2,3412766,340,269.285
E,6,3144753,vowelstep3.wav,None,1000,2,3414766,309,271.285
E,6,3144753,sinestep1.wav,None,1000,2,3416765,320,273.285
E,6,3144753,vowelstep5_catch.wav,2,86,2,3418765,350,275.285
E,6,3144753,sinestep7.wav,None,1000,2,3420765,1239,277.285
E,6,3144753,sinestep7.wav,None,1000,2,3422766,330,279.285
E,6,3144753,vowelstep7.wav,None,1000,2,3424766,324,281.285
E,6,3144753,silence.wav,None,1000,2,3426766,339,283.285
E,6,3144753,sinestep5.wav,None,1000,2,3428766,338,285.285
E,6,3144753,silence.wav,None,1000,2,3430766,339,287.285
E,6,3144753,silence.wav,None,1000,2,3432766,348,289.285
E,6,3144753,vowelstep5.wav,None,1000,2,3434766,329,291.285
E,6,3144753,vowelstep5.wav,None,1000,2,3436766,328,293.285
E,6,3144753,silence.wav,None,1000,2,3438766,322,295.285
E,6,3144753,vowelstep5.wav,None,1000,2,3440766,329,297.285
E,6,3144753,vowelstep7_catch.wav,2,486,2,3442766,337,299.285
E,6,3144753,vowelstep7_catch.wav,2,17,2,3444766,851,301.285
E,6,3144753,vowelstep5.wav,None,1000,2,3446766,1330,303.285
E,6,3144753,sinestep1.wav,None,1000,2,3448766,317,305.285
E,6,3144753,vowelstep3.wav,None,1000,2,3450766,328,307.285
E,6,3144753,vowelstep5_catch.wav,2,75,2,3452766,327,309.285
E,6,3144753,vowelstep7.wav,None,1000,2,3454766,1259,311.285
E,6,3144753,vowelstep5.wav,None,1000,2,3456766,338,313.285
E,6,3144753,vowelstep7.wav,None,1000,2,3458767,335,315.285
E,6,3144753,vowelstep1.wav,None,1000,2,3460767,336,317.285
E,6,3144753,vowelstep3_catch.wav,2,73,2,3462767,347,319.285
G,7,3518827,vowelstep3.wav,None,1000,2,3518834,0,1.285
G,7,3518827,vowelstep3.wav,None,1000,2,3520834,327,3.285
G,7,3518827,vowelstep7.wav,None,1000,2,3522834,324,5.285
G,7,3518827,vowelstep3.wav,None,1000,2,3524834,325,7.285
G,7,3518827,sinestep5.wav,None,1000,2,3526834,337,9.285
G,7,3518827,sinestep1_catch.wav,2,239,2,3528834,335,11.285
G,7,3518827,silence.wav,None,1000,2,3530834,1095,13.285
G,7,3518827,silence.wav,None,1000,2,3532834,341,15.285
G,7,3518827,vowelstep7.wav,None,1000,2,3534834,326,17.285
G,7,3518827,vowelstep1.wav,None,1000,2,3536834,323,19.285
G,7,3518827,silence.wav,None,1000,2,3538834,326,21.285
G,7,3518827,sinestep1.wav,None,1000,2,3540834,333,23.285
G,7,3518827,vowelstep7.wav,None,1000,2,3542834,336,25.285
G,7,3518827,sinestep5.wav,None,1000,2,3544835,332,27.285
G,7,3518827,sinestep5.wav,None,1000,2,3546835,341,29.285
G,7,3518827,sinestep3.wav,None,1000,2,3548835,326,31.285
G,7,3518827,vowelstep3.wav,None,1000,2,3550835,325,33.285
G,7,3518827,silence.wav,None,1000,2,3552834,326,35.285
G,7,3518827,vowelstep1.wav,None,1000,2,3554834,332,37.285
G,7,3518827,sinestep7.wav,None,1000,2,3556834,332,39.285
G,7,3518827,vowelstep5.wav,None,1000,2,3558834,335,41.285
G,7,3518827,vowelstep3.wav,None,1000,2,3560834,344,43.285
G,7,3518827,sinestep1.wav,None,1000,2,3562835,314,45.285
G,7,3518827,sinestep7.wav,None,1000,2,3564835,324,47.285
G,7,3518827,sinestep1.wav,None,1000,2,3566835,322,49.285
G,7,3518827,sinestep5.wav,None,1000,2,3568835,334,51.285
G,7,3518827,vowelstep1.wav,None,1000,2,3570835,334,53.285
G,7,3518827,silence.wav,None,1000,2,3572835,331,55.285
G,7,3518827,sinestep5.wav,None,1000,2,3574835,334,57.285
G,7,3518827,vowelstep1.wav,None,1000,2,3576835,323,59.285
G,7,3518827,vowelstep3.wav,None,1000,2,3578834,325,61.285
G,7,3518827,sinestep3.wav,None,1000,2,3580835,354,63.285
G,7,3518827,sinestep1.wav,None,1000,2,3582835,318,65.285
G,7,3518827,vowelstep5.wav,None,1000,2,3584835,334,67.285
G,7,3518827,vowelstep3.wav,None,1000,2,3586835,333,69.285
G,7,3518827,vowelstep5.wav,None,1000,2,3588835,340,71.285
G,7,3518827,vowelstep7.wav,None,1000,2,3590835,343,73.285
G,7,3518827,vowelstep5.wav,None,1000,2,3592835,342,75.285
G,7,3518827,vowelstep5.wav,None,1000,2,3594835,343,77.285
G,7,3518827,sinestep3.wav,None,1000,2,3596836,353,79.285
G,7,3518827,sinestep3_catch.wav,2,287,2,3598836,332,81.285
G,7,3518827,sinestep5_catch.wav,2,35,2,3600836,1044,83.285
G,7,3518827,sinestep7.wav,None,1000,2,3602835,1296,85.285
G,7,3518827,sinestep7_catch.wav,2,20,2,3604835,340,87.285
G,7,3518827,sinestep7.wav,None,1000,2,3606835,1321,89.285
G,7,3518827,vowelstep1.wav,None,1000,2,3608835,342,91.285
G,7,3518827,vowelstep7.wav,None,1000,2,3610835,322,93.285
G,7,3518827,vowelstep3.wav,None,1000,2,3612835,327,95.285
G,7,3518827,sinestep3.wav,None,1000,2,3614836,331,97.285
G,7,3518827,sinestep1.wav,None,1000,2,3616836,341,99.285
G,7,3518827,sinestep1.wav,None,1000,2,3618836,337,101.285
G,7,3518827,sinestep5.wav,None,1000,2,3620836,342,103.285
G,7,3518827,vowelstep7.wav,None,1000,2,3622836,336,105.285
G,7,3518827,silence.wav,None,1000,2,3624836,332,107.285
G,7,3518827,sinestep3.wav,None,1000,2,3626835,328,109.285
G,7,3518827,vowelstep1.wav,None,1000,2,3628835,328,111.285
G,7,3518827,sinestep3.wav,None,1000,2,3630835,331,113.285
G,7,3518827,sinestep3.wav,None,1000,2,3632836,341,115.285
G,7,3518827,sinestep7.wav,None,1000,2,3634836,337,117.285
G,7,3518827,silence.wav,None,1000,2,3636836,340,119.285
G,7,3518827,vowelstep5.wav,None,1000,2,3638836,345,121.285
G,7,3518827,sinestep1_catch.wav,2,69,2,3640836,331,123.285
G,7,3518827,silence.wav,None,1000,2,3642836,1259,125.285
G,7,3518827,sinestep5.wav,None,1000,2,3644836,330,127.285
G,7,3518827,sinestep7.wav,None,1000,2,3646836,340,129.285
G,7,3518827,sinestep3.wav,None,1000,2,3648836,340,131.285
G,7,3518827,sinestep3.wav,None,1000,2,3650836,339,133.285
G,7,3518827,vowelstep5.wav,None,1000,2,3652836,315,135.285
G,7,3518827,sinestep3.wav,None,1000,2,3654836,320,137.285
G,7,3518827,sinestep3_catch.wav,2,362,2,3656836,328,139.285
G,7,3518827,vowelstep1.wav,None,1000,2,3658836,967,141.285
G,7,3518827,vowelstep1.wav,None,1000,2,3660836,339,143.285
G,7,3518827,sinestep5.wav,None,1000,2,3662836,339,145.285
G,7,3518827,silence.wav,None,1000,2,3664836,339,147.285
G,7,3518827,sinestep3.wav,None,1000,2,3666837,336,149.285
G,7,3518827,silence.wav,None,1000,2,3668837,328,151.285
G,7,3518827,vowelstep3.wav,None,1000,2,3670837,323,153.285
G,7,3518827,sinestep5.wav,None,1000,2,3672837,328,155.285
G,7,3518827,vowelstep7.wav,None,1000,2,3674836,327,157.285
G,7,3518827,silence.wav,None,1000,2,3676836,339,159.285
G,7,3518827,sinestep5_catch.wav,2,397,2,3678836,338,161.285
G,7,3518827,vowelstep5.wav,None,1000,2,3680836,951,163.285
G,7,3518827,silence.wav,None,1000,2,3682836,314,165.285
G,7,3518827,vowelstep7.wav,None,1000,2,3684837,328,167.285
G,7,3518827,vowelstep1.wav,None,1000,2,3686837,325,169.285
G,7,3518827,vowelstep1.wav,None,1000,2,3688837,333,171.285
G,7,3518827,vowelstep1.wav,None,1000,2,3690837,337,173.285
G,7,3518827,sinestep5.wav,None,1000,2,3692837,337,175.285
G,7,3518827,vowelstep3.wav,None,1000,2,3694837,346,177.285
G,7,3518827,sinestep1.wav,None,1000,2,3696837,327,179.285
G,7,3518827,vowelstep1.wav,None,1000,2,3698836,327,181.285
G,7,3518827,sinestep1.wav,None,1000,2,3700836,327,183.285
G,7,3518827,sinestep7.wav,None,1000,2,3702837,327,185.285
G,7,3518827,sinestep7.wav,None,1000,2,3704837,336,187.285
G,7,3518827,sinestep3.wav,None,1000,2,3706837,336,189.285
G,7,3518827,sinestep5.wav,None,1000,2,3708837,346,191.285
G,7,3518827,silence.wav,None,1000,2,3710837,346,193.285
G,7,3518827,sinestep7_catch.wav,2,80,2,3712837,320,195.285
G,7,3518827,vowelstep7_catch.wav,2,66,2,3714837,1238,197.285
G,7,3518827,sinestep7.wav,None,1000,2,3716837,1260,199.285
G,7,3518827,silence.wav,None,1000,2,3718837,330,201.285
G,7,3518827,sinestep7.wav,None,1000,2,3720838,335,203.285
G,7,3518827,sinestep3.wav,None,1000,2,3722837,334,205.285
G,7,3518827,vowelstep7.wav,None,1000,2,3724837,315,207.285
G,7,3518827,sinestep1.wav,None,1000,2,3726837,320,209.285
G,7,3518827,silence.wav,None,1000,2,3728837,324,211.285
G,7,3518827,silence.wav,None,1000,2,3730837,321,213.285
G,7,3518827,vowelstep7.wav,None,1000,2,3732837,333,215.285
G,7,3518827,vowelstep5.wav,None,1000,2,3734837,334,217.285
G,7,3518827,sinestep7.wav,None,1000,2,3736838,334,219.285
G,7,3518827,vowelstep5.wav,None,1000,2,3738838,344,221.285
G,7,3518827,vowelstep5_catch.wav,2,308,2,3740838,324,223.285
G,7,3518827,vowelstep7.wav,None,1000,2,3742838,1015,225.285
G,7,3518827,silence.wav,None,1000,2,3744838,324,227.285
G,7,3518827,silence.wav,None,1000,2,3746837,334,229.285
G,7,3518827,sinestep1.wav,None,1000,2,3748837,330,231.285
G,7,3518827,silence.wav,None,1000,2,3750837,334,233.285
G,7,3518827,vowelstep7.wav,None,1000,2,3752837,313,235.285
G,7,3518827,vowelstep5.wav,None,1000,2,3754838,324,237.285
G,7,3518827,vowelstep3.wav,None,1000,2,3756838,324,239.285
G,7,3518827,vowelstep3_catch.wav,2,233,2,3758838,333,241.285
G,7,3518827,sinestep1.wav,None,1000,2,3760838,1099,243.285
G,7,3518827,silence.wav,None,1000,2,3762838,332,245.285
G,7,3518827,sinestep7.wav,None,1000,2,3764838,329,247.285
G,7,3518827,sinestep1.wav,None,1000,2,3766838,323,249.285
G,7,3518827,sinestep3.wav,None,1000,2,3768838,321,251.285
G,7,3518827,vowelstep3.wav,None,1000,2,3770837,322,253.285
G,7,3518827,vowelstep1_catch.wav,2,561,2,3772838,323,255.285
G,7,3518827,sinestep7.wav,None,1000,2,3774838,769,257.285
G,7,3518827,silence.wav,None,1000,2,3776838,332,259.285
G,7,3518827,sinestep5.wav,None,1000,2,3778838,331,261.285
G,7,3518827,sinestep5.wav,None,1000,2,3780838,337,263.285
G,7,3518827,vowelstep5.wav,None,1000,2,3782838,322,265.285
G,7,3518827,sinestep5.wav,None,1000,2,3784838,320,267.285
G,7,3518827,sinestep7.wav,None,1000,2,3786838,321,269.285
G,7,3518827,silence.wav,None,1000,2,3788838,331,271.285
G,7,3518827,vowelstep7_catch.wav,2,91,2,3790839,330,273.285
G,7,3518827,vowelstep5.wav,None,1000,2,3792839,1239,275.285
G,7,3518827,silence.wav,None,1000,2,3794838,305,277.285
G,7,3518827,sinestep3.wav,None,1000,2,3796838,317,279.285
G,7,3518827,vowelstep5.wav,None,1000,2,3798838,320,281.285
G,7,3518827,silence.wav,None,1000,2,3800838,319,283.285
G,7,3518827,vowelstep1.wav,None,1000,2,3802838,331,285.285
G,7,3518827,sinestep1.wav,None,1000,2,3804838,330,287.285
G,7,3518827,vowelstep3.wav,None,1000,2,3806839,328,289.285
G,7,3518827,vowelstep7.wav,None,1000,2,3808839,325,291.285
G,7,3518827,vowelstep7.wav,None,1000,2,3810839,319,293.285
G,7,3518827,sinestep1.wav,None,1000,2,3812839,316,295.285
G,7,3518827,vowelstep5.wav,None,1000,2,3814839,320,297.285
G,7,3518827,silence.wav,None,1000,2,3816839,318,299.285
G,7,3518827,sinestep1.wav,None,1000,2,3818838,329,301.285
G,7,3518827,vowelstep7.wav,None,1000,2,3820838,324,303.285
G,7,3518827,vowelstep5_catch.wav,2,153,2,3822838,334,305.285
G,7,3518827,vowelstep3.wav,None,1000,2,3824839,1186,307.285
G,7,3518827,vowelstep3_catch.wav,2,203,2,3826839,338,309.285
G,7,3518827,sinestep7.wav,None,1000,2,3828839,1129,311.285
G,7,3518827,sinestep5.wav,None,1000,2,3830839,348,313.285
G,7,3518827,vowelstep1.wav,None,1000,2,3832839,325,315.285
G,7,3518827,vowelstep3.wav,None,1000,2,3834839,329,317.285
G,7,3518827,vowelstep1.wav,None,1000,2,3836839,328,319.285
F,8,3894108,sinestep1.wav,None,1000,2,3894124,0,1.285
F,8,3894108,vowelstep5.wav,None,1000,2,3896124,315,3.285
F,8,3894108,vowelstep3.wav,None,1000,2,3898124,315,5.285
F,8,3894108,sinestep5.wav,None,1000,2,3900123,313,7.285
F,8,3894108,vowelstep7.wav,None,1000,2,3902123,325,9.285
F,8,3894108,silence.wav,None,1000,2,3904123,325,11.285
F,8,3894108,vowelstep5.wav,None,1000,2,3906123,325,13.285
F,8,3894108,sinestep3.wav,None,1000,2,3908123,335,15.285
F,8,3894108,sinestep3.wav,None,1000,2,3910123,335,17.285
F,8,3894108,silence.wav,None,1000,2,3912124,336,19.285
F,8,3894108,vowelstep7.wav,None,1000,2,3914124,344,21.285
F,8,3894108,vowelstep7.wav,None,1000,2,3916124,321,23.285
F,8,3894108,vowelstep1_catch.wav,2,174,2,3918124,324,25.285
F,8,3894108,vowelstep3_catch.wav,2,43,2,3920124,1144,27.285
F,8,3894108,vowelstep1.wav,None,1000,2,3922124,1291,29.285
F,8,3894108,sinestep5.wav,None,1000,2,3924123,334,31.285
F,8,3894108,sinestep5.wav,None,1000,2,3926123,334,33.285
F,8,3894108,vowelstep7.wav,None,1000,2,3928123,334,35.285
F,8,3894108,sinestep3.wav,None,1000,2,3930124,324,37.285
F,8,3894108,sinestep7.wav,None,1000,2,3932124,320,39.285
F,8,3894108,vowelstep5_catch.wav,2,235,2,3934124,319,41.285
F,8,3894108,sinestep1.wav,None,1000,2,3936124,1094,43.285
F,8,3894108,vowelstep7_catch.wav,2,162,2,3938124,334,45.285
F,8,3894108,vowelstep3.wav,None,1000,2,3940124,1170,47.285
F,8,3894108,sinestep1.wav,None,1000,2,3942124,333,49.285
F,8,3894108,sinestep7.wav,None,1000,2,3944124,313,51.285
F,8,3894108,silence.wav,None,1000,2,3946124,320,53.285
F,8,3894108,sinestep7.wav,None,1000,2,3948124,316,55.285
F,8,3894108,vowelstep1.wav,None,1000,2,3950124,322,57.285
F,8,3894108,vowelstep3.wav,None,1000,2,3952124,331,59.285
F,8,3894108,vowelstep7_catch.wav,2,161,2,3954124,332,61.285
F,8,3894108,sinestep5.wav,None,1000,2,3956124,1171,63.285
F,8,3894108,sinestep3.wav,None,1000,2,3958124,312,65.285
F,8,3894108,vowelstep3.wav,None,1000,2,3960124,321,67.285
F,8,3894108,silence.wav,None,1000,2,3962124,318,69.285
F,8,3894108,vowelstep1.wav,None,1000,2,3964125,321,71.285
F,8,3894108,vowelstep1.wav,None,1000,2,3966125,326,73.285
F,8,3894108,vowelstep5_catch.wav,2,106,2,3968125,331,75.285
F,8,3894108,silence.wav,None,1000,2,3970125,1223,77.285
F,8,3894108,vowelstep3.wav,None,1000,2,3972124,321,79.285
F,8,3894108,vowelstep5.wav,None,1000,2,3974124,321,81.285
F,8,3894108,vowelstep3_catch.wav,2,384,2,3976124,321,83.285
F,8,3894108,vowelstep3.wav,None,1000,2,3978124,936,85.285
F,8,3894108,sinestep7.wav,None,1000,2,3980124,327,87.285
F,8,3894108,vowelstep1.wav,None,1000,2,3982125,331,89.285
F,8,3894108,sinestep1.wav,None,1000,2,3984125,329,91.285
F,8,3894108,vowelstep1_catch.wav,2,59,2,3986125,310,93.285
F,8,3894108,vowelstep5.wav,None,1000,2,3988125,1261,95.285
F,8,3894108,sinestep7.wav,None,1000,2,3990125,320,97.285
F,8,3894108,vowelstep7.wav,None,1000,2,3992125,320,99.285
F,8,3894108,vowelstep3.wav,None,1000,2,3994125,330,101.285
F,8,3894108,sinestep3.wav,None,1000,2,3996124,326,103.285
F,8,3894108,silence.wav,None,1000,2,3998124,324,105.285
F,8,3894108,sinestep1.wav,None,1000,2,4000125,339,107.285
F,8,3894108,sinestep1.wav,None,1000,2,4002125,319,109.285
F,8,3894108,silence.wav,None,1000,2,4004125,319,111.285
F,8,3894108,sinestep7.wav,None,1000,2,4006125,318,113.285
F,8,3894108,vowelstep3.wav,None,1000,2,4008125,329,115.285
F,8,3894108,sinestep3.wav,None,1000,2,4010125,328,117.285
F,8,3894108,vowelstep3.wav,None,1000,2,4012125,320,119.285
F,8,3894108,vowelstep7.wav,None,1000,2,4014125,339,121.285
F,8,3894108,vowelstep7.wav,None,1000,2,4016125,337,123.285
F,8,3894108,vowelstep5.wav,None,1000,2,4018126,318,125.285
F,8,3894108,sinestep1.wav,None,1000,2,4020125,313,127.285
F,8,3894108,silence.wav,None,1000,2,4022125,317,129.285
F,8,3894108,sinestep1.wav,None,1000,2,4024125,328,131.285
F,8,3894108,sinestep3.wav,None,1000,2,4026125,327,133.285
F,8,3894108,sinestep1_catch.wav,2,218,2,4028125,334,135.285
F,8,3894108,sinestep3.wav,None,1000,2,4030125,1089,137.285
F,8,3894108,sinestep3.wav,None,1000,2,4032125,316,139.285
F,8,3894108,silence.wav,None,1000,2,4034126,318,141.285
F,8,3894108,silence.wav,None,1000,2,4036126,324,143.285
F,8,3894108,sinestep7.wav,None,1000,2,4038126,326,145.285
F,8,3894108,sinestep5.wav,None,1000,2,4040126,326,147.285
F,8,3894108,vowelstep1.wav,None,1000,2,4042126,326,149.285
F,8,3894108,sinestep7.wav,None,1000,2,4044125,314,151.285
F,8,3894108,silence.wav,None,1000,2,4046125,317,153.285
F,8,3894108,sinestep3_catch.wav,2,96,2,4048125,315,155.285
F,8,3894108,vowelstep5.wav,None,1000,2,4050125,1231,157.285
F,8,3894108,sinestep3.wav,None,1000,2,4052126,326,159.285
F,8,3894108,vowelstep5.wav,None,1000,2,4054126,321,161.285
F,8,3894108,sinestep3.wav,None,1000,2,4056126,336,163.285
F,8,3894108,vowelstep3.wav,None,1000,2,4058126,301,165.285
F,8,3894108,vowelstep1.wav,None,1000,2,4060126,315,167.285
F,8,3894108,sinestep5.wav,None,1000,2,4062126,306,169.285
F,8,3894108,vowelstep5.wav,None,1000,2,4064126,327,171.285
F,8,3894108,vowelstep1.wav,None,1000,2,4066126,325,173.285
F,8,3894108,vowelstep1.wav,None,1000,2,4068125,325,175.285
F,8,3894108,sinestep7.wav,None,1000,2,4070126,326,177.285
F,8,3894108,vowelstep1.wav,None,1000,2,4072126,304,179.285
F,8,3894108,sinestep5.wav,None,1000,2,4074126,314,181.285
F,8,3894108,vowelstep7.wav,None,1000,2,4076126,311,183.285
F,8,3894108,sinestep1.wav,None,1000,2,4078126,325,185.285
F,8,3894108,vowelstep7.wav,None,1000,2,4080126,323,187.285
F,8,3894108,sinestep5.wav,None,1000,2,4082126,319,189.285
F,8,3894108,vowelstep5.wav,None,1000,2,4084126,324,191.285
F,8,3894108,silence.wav,None,1000,2,4086126,315,193.285
F,8,3894108,sinestep7.wav,None,1000,2,4088127,314,195.285
F,8,3894108,vowelstep5.wav,None,1000,2,4090127,310,197.285
F,8,3894108,vowelstep7.wav,None,1000,2,4092126,314,199.285
F,8,3894108,silence.wav,None,1000,2,4094126,322,201.285
F,8,3894108,vowelstep1.wav,None,1000,2,4096126,323,203.285
F,8,3894108,vowelstep7.wav,None,1000,2,4098126,324,205.285
F,8,3894108,vowelstep7.wav,None,1000,2,4100126,304,207.285
F,8,3894108,vowelstep3.wav,None,1000,2,4102126,313,209.285
F,8,3894108,vowelstep3.wav,None,1000,2,4104127,312,211.285
F,8,3894108,silence.wav,None,1000,2,4106127,322,213.285
F,8,3894108,sinestep7.wav,None,1000,2,4108127,319,215.285
F,8,3894108,sinestep1.wav,None,1000,2,4110127,323,217.285
F,8,3894108,silence.wav,None,1000,2,4112127,321,219.285
F,8,3894108,vowelstep1.wav,None,1000,2,4114127,311,221.285
F,8,3894108,sinestep5_catch.wav,2,134,2,4116126,312,223.285
F,8,3894108,sinestep1.wav,None,1000,2,4118126,1177,225.285
F,8,3894108,silence.wav,None,1000,2,4120126,312,227.285
F,8,3894108,sinestep7.wav,None,1000,2,4122127,319,229.285
F,8,3894108,sinestep7.wav,None,1000,2,4124127,320,231.285
F,8,3894108,silence.wav,None,1000,2,4126127,320,233.285
F,8,3894108,vowelstep5.wav,None,1000,2,4128127,300,235.285
F,8,3894108,sinestep7.wav,None,1000,2,4130127,311,237.285
F,8,3894108,sinestep5.wav,None,1000,2,4132127,310,239.285
F,8,3894108,sinestep5.wav,None,1000,2,4134127,311,241.285
F,8,3894108,silence.wav,None,1000,2,4136127,322,243.285
F,8,3894108,vowelstep3.wav,None,1000,2,4138127,319,245.285
F,8,3894108,vowelstep3.wav,None,1000,2,4140128,318,247.285
F,8,3894108,silence.wav,None,1000,2,4142127,326,249.285
F,8,3894108,sinestep1.wav,None,1000,2,4144111,329,251.285
F,8,3894108,sinestep1.wav,None,1000,2,4146127,330,253.285
F,8,3894108,vowelstep5.wav,None,1000,2,4148127,340,255.285
F,8,3894108,silence.wav,None,1000,2,4150127,320,257.285
F,8,3894108,sinestep5.wav,None,1000,2,4152127,320,259.285
F,8,3894108,sinestep5.wav,None,1000,2,4154127,319,261.285
F,8,3894108,sinestep5.wav,None,1000,2,4156127,326,263.285
F,8,3894108,sinestep7.wav,None,1000,2,4158128,327,265.285
F,8,3894108,sinestep7_catch.wav,2,146,2,4160111,324,267.285
F,8,3894108,sinestep7_catch.wav,None,1000,2,4162128,1192,269.285
F,8,3894108,sinestep1.wav,None,1000,2,4164111,319,271.285
F,8,3894108,vowelstep7.wav,None,1000,2,4166127,338,273.285
F,8,3894108,sinestep3.wav,None,1000,2,4168127,319,275.285
F,8,3894108,sinestep3.wav,None,1000,2,4170127,328,277.285
F,8,3894108,silence.wav,None,1000,2,4172127,323,279.285
F,8,3894108,sinestep5_catch.wav,2,145,2,4174128,321,281.285
F,8,3894108,sinestep5.wav,None,1000,2,4176111,1181,283.285
F,8,3894108,silence.wav,None,1000,2,4178111,338,285.285
F,8,3894108,vowelstep5.wav,None,1000,2,4180111,334,287.285
F,8,3894108,silence.wav,None,1000,2,4182111,338,289.285
F,8,3894108,sinestep1.wav,None,1000,2,4184128,313,291.285
F,8,3894108,sinestep3.wav,None,1000,2,4186128,327,293.285
F,8,3894108,vowelstep3.wav,None,1000,2,4188128,325,295.285
F,8,3894108,silence.wav,None,1000,2,4190127,328,297.285
F,8,3894108,sinestep5.wav,None,1000,2,4192112,306,299.285
F,8,3894108,vowelstep5.wav,None,1000,2,4194112,337,301.285
F,8,3894108,vowelstep5.wav,None,1000,2,4196112,336,303.285
F,8,3894108,vowelstep1.wav,None,1000,2,4198111,347,305.285
F,8,3894108,sinestep3.wav,None,1000,2,4200111,326,307.285
F,8,3894108,silence.wav,None,1000,2,4202128,315,309.285
F,8,3894108,sinestep3_catch.wav,2,700,2,4204128,323,311.285
F,8,3894108,vowelstep1.wav,None,1000,2,4206128,617,313.285
F,8,3894108,vowelstep7.wav,None,1000,2,4208111,314,315.285
F,8,3894108,vowelstep7.wav,None,1000,2,4210112,347,317.285
F,8,3894108,vowelstep1.wav,None,1000,2,4212112,315,319.285
A,9,4268597,sinestep5_catch.wav,2,339,2,4268613,0,1.285
A,9,4268597,vowelstep1.wav,None,1000,2,4270612,979,3.285
A,9,4268597,vowelstep3.wav,None,1000,2,4272612,322,5.285
A,9,4268597,sinestep1.wav,None,1000,2,4274612,318,7.285
A,9,4268597,sinestep5_catch.wav,2,125,2,4276612,279,9.285
A,9,4268597,sinestep7.wav,None,1000,2,4278612,1205,11.285
A,9,4268597,sinestep3.wav,None,1000,2,4280613,340,13.285
A,9,4268597,silence.wav,None,1000,2,4282613,311,15.285
A,9,4268597,vowelstep7.wav,None,1000,2,4284613,320,17.285
A,9,4268597,sinestep7.wav,None,1000,2,4286613,319,19.285
A,9,4268597,vowelstep5_catch.wav,2,64,2,4288613,319,21.285
A,9,4268597,sinestep7.wav,None,1000,2,4290613,1266,23.285
A,9,4268597,sinestep3.wav,None,1000,2,4292613,330,25.285
A,9,4268597,silence.wav,None,1000,2,4294612,329,27.285
A,9,4268597,sinestep3.wav,None,1000,2,4296613,309,29.285
A,9,4268597,sinestep5_catch.wav,None,1000,2,4298613,319,31.285
A,9,4268597,sinestep1.wav,None,1000,2,4300613,319,33.285
A,9,4268597,sinestep1.wav,None,1000,2,4302613,319,35.285
A,9,4268597,sinestep5.wav,None,1000,2,4304613,324,37.285
A,9,4268597,vowelstep3.wav,None,1000,2,4306613,328,39.285
A,9,4268597,vowelstep5.wav,None,1000,2,4308613,323,41.285
A,9,4268597,vowelstep3.wav,None,1000,2,4310613,337,43.285
A,9,4268597,vowelstep1.wav,None,1000,2,4312613,319,45.285
A,9,4268597,vowelstep3.wav,None,1000,2,4314614,320,47.285
A,9,4268597,sinestep3.wav,None,1000,2,4316614,318,49.285
A,9,4268597,sinestep7.wav,None,1000,2,4318613,307,51.285
A,9,4268597,sinestep5.wav,None,1000,2,4320613,327,53.285
A,9,4268597,vowelstep7_catch.wav,2,90,2,4322613,323,55.285
A,9,4268597,silence.wav,None,1000,2,4324613,1218,57.285
A,9,4268597,vowelstep3.wav,None,1000,2,4326613,316,59.285
A,9,4268597,vowelstep1.wav,None,1000,2,4328613,319,61.285
A,9,4268597,silence.wav,None,1000,2,4330613,318,63.285
A,9,4268597,sinestep3.wav,None,1000,2,4332614,328,65.285
A,9,4268597,sinestep7.wav,None,1000,2,4334614,326,67.285
A,9,4268597,sinestep5.wav,None,1000,2,4336614,280,69.285
A,9,4268597,sinestep5.wav,None,1000,2,4338614,312,71.285
A,9,4268597,sinestep7.wav,None,1000,2,4340614,317,73.285
A,9,4268597,sinestep1.wav,None,1000,2,4342613,315,75.285
A,9,4268597,sinestep5.wav,None,1000,2,4344613,317,77.285
A,9,4268597,vowelstep1.wav,None,1000,2,4346613,327,79.285
A,9,4268597,sinestep1.wav,None,1000,2,4348614,327,81.285
A,9,4268597,vowelstep5.wav,None,1000,2,4350614,322,83.285
A,9,4268597,sinestep1.wav,None,1000,2,4352614,336,85.285
A,9,4268597,silence.wav,None,1000,2,4354614,303,87.285
A,9,4268597,vowelstep1.wav,None,1000,2,4356614,316,89.285
A,9,4268597,sinestep3.wav,None,1000,2,4358614,316,91.285
A,9,4268597,vowelstep5.wav,None,1000,2,4360614,326,93.285
A,9,4268597,vowelstep5.wav,None,1000,2,4362614,326,95.285
A,9,4268597,vowelstep5.wav,None,1000,2,4364614,325,97.285
A,9,4268597,vowelstep7.wav,None,1000,2,4366614,332,99.285
A,9,4268597,vowelstep3.wav,None,1000,2,4368614,316,101.285
A,9,4268597,sinestep1.wav,None,1000,2,4370614,311,103.285
A,9,4268597,sinestep1.wav,None,1000,2,4372614,315,105.285
A,9,4268597,vowelstep7.wav,None,1000,2,4374614,311,107.285
A,9,4268597,vowelstep1.wav,None,1000,2,4376614,325,109.285
A,9,4268597,vowelstep7.wav,None,1000,2,4378614,323,111.285
A,9,4268597,silence.wav,None,1000,2,4380614,333,113.285
A,9,4268597,sinestep1.wav,None,1000,2,4382614,305,115.285
A,9,4268597,vowelstep1.wav,None,1000,2,4384615,315,117.285
A,9,4268597,silence.wav,None,1000,2,4386615,310,119.285
A,9,4268597,vowelstep1.wav,None,1000,2,4388615,325,121.285
A,9,4268597,vowelstep3.wav,None,1000,2,4390614,323,123.285
A,9,4268597,vowelstep1.wav,None,1000,2,4392614,324,125.285
A,9,4268597,sinestep7.wav,None,1000,2,4394614,328,127.285
A,9,4268597,silence.wav,None,1000,2,4396614,304,129.285
A,9,4268597,vowelstep1.wav,None,1000,2,4398614,313,131.285
A,9,4268597,silence.wav,None,1000,2,4400614,313,133.285
A,9,4268597,sinestep7.wav,None,1000,2,4402615,309,135.285
A,9,4268597,vowelstep5.wav,None,1000,2,4404615,323,137.285
A,9,4268597,sinestep7.wav,None,1000,2,4406615,322,139.285
A,9,4268597,sinestep3.wav,None,1000,2,4408615,323,141.285
A,9,4268597,vowelstep5.wav,None,1000,2,4410615,331,143.285
A,9,4268597,silence.wav,None,1000,2,4412615,312,145.285
A,9,4268597,sinestep3.wav,None,1000,2,4414614,299,147.285
A,9,4268597,sinestep5.wav,None,1000,2,4416614,310,149.285
A,9,4268597,sinestep3.wav,None,1000,2,4418615,320,151.285
A,9,4268597,vowelstep3.wav,None,1000,2,4420615,319,153.285
A,9,4268597,sinestep3.wav,None,1000,2,4422615,321,155.285
A,9,4268597,vowelstep7_catch.wav,2,185,2,4424615,331,157.285
A,9,4268597,vowelstep7.wav,None,1000,2,4426615,1126,159.285
A,9,4268597,vowelstep5.wav,None,1000,2,4428615,312,161.285
A,9,4268597,sinestep5.wav,None,1000,2,4430615,320,163.285
A,9,4268597,silence.wav,None,1000,2,4432615,321,165.285
A,9,4268597,sinestep5.wav,None,1000,2,4434615,318,167.285
A,9,4268597,vowelstep5_catch.wav,2,442,2,4436616,322,169.285
A,9,4268597,silence.wav,None,1000,2,4438615,883,171.285
A,9,4268597,sinestep7.wav,None,1000,2,4440615,311,173.285
A,9,4268597,sinestep5.wav,None,1000,2,4442615,311,175.285
A,9,4268597,sinestep7.wav,None,1000,2,4444615,311,177.285
A,9,4268597,vowelstep3.wav,None,1000,2,4446615,309,179.285
A,9,4268597,sinestep5.wav,None,1000,2,4448615,321,181.285
A,9,4268597,vowelstep1.wav,None,1000,2,4450615,314,183.285
A,9,4268597,vowelstep5.wav,None,1000,2,4452615,329,185.285
A,9,4268597,sinestep5.wav,None,1000,2,4454616,308,187.285
A,9,4268597,vowelstep1.wav,None,1000,2,4456616,305,189.285
A,9,4268597,silence.wav,None,1000,2,4458616,309,191.285
A,9,4268597,sinestep1.wav,None,1000,2,4460616,315,193.285
A,9,4268597,vowelstep5.wav,None,1000,2,4462615,319,195.285
A,9,4268597,sinestep3.wav,None,1000,2,4464615,319,197.285
A,9,4268597,silence.wav,None,1000,2,4466615,316,199.285
A,9,4268597,vowelstep3.wav,None,1000,2,4468615,325,201.285
A,9,4268597,vowelstep3_catch.wav,2,209,2,4470615,327,203.285
A,9,4268597,vowelstep5.wav,None,1000,2,4472616,1094,205.285
A,9,4268597,vowelstep1_catch.wav,2,48,2,4474616,318,207.285
A,9,4268597,silence.wav,None,1000,2,4476616,1264,209.285
A,9,4268597,sinestep3.wav,None,1000,2,4478616,318,211.285
A,9,4268597,vowelstep5.wav,None,1000,2,4480616,322,213.285
A,9,4268597,silence.wav,None,1000,2,4482616,327,215.285
A,9,4268597,sinestep5.wav,None,1000,2,4484616,322,217.285
A,9,4268597,vowelstep7.wav,None,1000,2,4486615,338,219.285
A,9,4268597,silence.wav,None,1000,2,4488600,307,221.285
A,9,4268597,vowelstep3.wav,None,1000,2,4490616,337,223.285
A,9,4268597,sinestep7.wav,None,1000,2,4492616,316,225.285
A,9,4268597,silence.wav,None,1000,2,4494616,325,227.285
A,9,4268597,vowelstep3.wav,None,1000,2,4496616,318,229.285
A,9,4268597,vowelstep5.wav,None,1000,2,4498616,320,231.285
A,9,4268597,vowelstep7.wav,None,1000,2,4500616,323,233.285
A,9,4268597,vowelstep3.wav,None,1000,2,4502616,313,235.285
A,9,4268597,vowelstep5.wav,None,1000,2,4504616,310,237.285
A,9,4268597,sinestep1_catch.wav,2,233,2,4506600,314,239.285
A,9,4268597,sinestep3.wav,None,1000,2,4508617,1078,241.285
A,9,4268597,sinestep1.wav,None,1000,2,4510616,322,243.285
A,9,4268597,sinestep3_catch.wav,2,37,2,4512616,322,245.285
A,9,4268597,sinestep7.wav,None,1000,2,4514616,1297,247.285
A,9,4268597,vowelstep1.wav,None,1000,2,4516616,303,249.285
A,9,4268597,sinestep3.wav,None,1000,2,4518599,316,251.285
A,9,4268597,vowelstep7.wav,None,1000,2,4520616,281,253.285
A,9,4268597,silence.wav,None,1000,2,4522616,326,255.285
A,9,4268597,sinestep1.wav,None,1000,2,4524600,324,257.285
A,9,4268597,silence.wav,None,1000,2,4526600,324,259.285
A,9,4268597,vowelstep5.wav,None,1000,2,4528617,328,261.285
A,9,4268597,sinestep5_catch.wav,2,56,2,4530617,303,263.285
A,9,4268597,vowelstep7.wav,None,1000,2,4532617,1255,265.285
A,9,4268597,sinestep3.wav,None,1000,2,4534600,314,267.285
A,9,4268597,vowelstep1.wav,None,1000,2,4536600,324,269.285
A,9,4268597,vowelstep3.wav,None,1000,2,4538616,325,271.285
A,9,4268597,sinestep7_catch.wav,2,100,2,4540616,324,273.285
A,9,4268597,silence.wav,None,1000,2,4542600,1232,275.285
A,9,4268597,vowelstep7.wav,None,1000,2,4544600,329,277.285
A,9,4268597,sinestep7.wav,None,1000,2,4546617,325,279.285
A,9,4268597,sinestep1.wav,None,1000,2,4548617,313,281.285
A,9,4268597,vowelstep7.wav,None,1000,2,4550600,309,283.285
A,9,4268597,sinestep5.wav,None,1000,2,4552600,344,285.285
A,9,4268597,sinestep5.wav,None,1000,2,4554600,339,287.285
A,9,4268597,sinestep7_catch.wav,2,278,2,4556617,322,289.285
A,9,4268597,sinestep5.wav,None,1000,2,4558601,1023,291.285
A,9,4268597,silence.wav,None,1000,2,4560601,328,293.285
A,9,4268597,vowelstep3.wav,None,1000,2,4562601,329,295.285
A,9,4268597,silence.wav,None,1000,2,4564617,341,297.285
A,9,4268597,vowelstep1.wav,None,1000,2,4566600,323,299.285
A,9,4268597,sinestep1.wav,None,1000,2,4568600,342,301.285
A,9,4268597,sinestep7.wav,None,1000,2,4570600,322,303.285
A,9,4268597,vowelstep7.wav,None,1000,2,4572600,331,305.285
A,9,4268597,sinestep1_catch.wav,2,141,2,4574600,332,307.285
A,9,4268597,silence.wav,None,1000,2,4576601,1192,309.285
A,9,4268597,silence.wav,None,1000,2,4578601,338,311.285
A,9,4268597,vowelstep7.wav,None,1000,2,4580601,339,313.285
A,9,4268597,sinestep1.wav,None,1000,2,4582601,341,315.285
A,9,4268597,vowelstep7.wav,None,1000,2,4584601,351,317.285
A,9,4268597,vowelstep7.wav,None,1000,2,4586601,331,319.285