block,count_main_sequence,first_trial_timestamp,fname,response_catch_response,response_time_catch_response,subject_nr,time_stimulus,time_to_pad,timing
P,NA,248400,vowelstep1_catch.wav,None,1000,3,248419,0,
P,NA,248400,sinestep7_catch.wav,None,1000,3,250403,434,
P,NA,248400,vowelstep5_catch.wav,None,1000,3,252403,468,
P,NA,248400,sinestep7.wav,None,1000,3,254403,438,
P,NA,248400,sinestep7.wav,None,1000,3,256403,447,
P,NA,248400,sinestep3.wav,None,1000,3,258403,448,
P,NA,248400,sinestep1.wav,None,1000,3,260403,459,
P,NA,248400,vowelstep7.wav,None,1000,3,262419,458,
P,NA,248400,vowelstep3.wav,None,1000,3,264419,438,
P,NA,248400,silence.wav,None,1000,3,266404,438,
P,NA,248400,sinestep1.wav,None,1000,3,268404,447,
P,NA,248400,vowelstep1.wav,None,1000,3,270403,447,
P,NA,248400,sinestep5.wav,None,1000,3,272403,447,
P,NA,248400,sinestep1.wav,None,1000,3,274403,448,
P,NA,248400,sinestep1.wav,None,1000,3,276403,458,
P,NA,248400,vowelstep1.wav,None,1000,3,278403,457,
P,NA,248400,silence.wav,None,1000,3,280403,457,
P,NA,248400,silence.wav,None,1000,3,282403,448,
P,NA,248400,silence.wav,None,1000,3,284404,448,
P,NA,248400,sinestep3_catch.wav,2,281,3,286404,446,
P,NA,248400,vowelstep7.wav,None,1000,3,288404,1174,
P,NA,248400,silence.wav,None,1000,3,290404,456,
P,NA,248400,vowelstep7.wav,None,1000,3,292404,455,
P,NA,248400,vowelstep3.wav,None,1000,3,294403,456,
P,NA,248400,silence.wav,None,1000,3,296403,443,
P,NA,248400,vowelstep1.wav,None,1000,3,298403,445,
P,NA,248400,sinestep3.wav,None,1000,3,300403,446,
P,NA,248400,vowelstep1.wav,None,1000,3,302404,446,
P,NA,248400,silence.wav,None,1000,3,304404,455,
P,NA,248400,sinestep7.wav,None,1000,3,306404,453,
P,NA,248400,sinestep5_catch.wav,2,317,3,308404,465,
P,NA,248400,silence.wav,None,1000,3,310404,1149,
P,NA,248400,sinestep7.wav,None,1000,3,312404,445,
P,NA,248400,sinestep5.wav,None,1000,3,314404,446,
P,NA,248400,sinestep3.wav,None,1000,3,316404,445,
P,NA,248400,sinestep1_catch.wav,2,213,3,318403,455,
P,NA,248400,vowelstep3_catch.wav,2,493,3,320404,1240,
P,NA,248400,vowelstep5_catch.wav,2,692,3,322404,961,
P,NA,248400,vowelstep7.wav,None,1000,3,324404,741,
P,NA,248400,silence.wav,None,1000,3,326404,444,
P,NA,248400,vowelstep7_catch.wav,2,347,3,328404,444,
P,NA,248400,vowelstep3.wav,None,1000,3,330404,1096,
P,NA,248400,silence.wav,None,1000,3,332404,454,
P,NA,248400,sinestep7_catch.wav,2,319,3,334404,453,
P,NA,248400,sinestep7.wav,None,1000,3,336405,1132,
P,NA,248400,vowelstep5.wav,None,1000,3,338405,463,
P,NA,248400,vowelstep3.wav,None,1000,3,340405,441,
P,NA,248400,sinestep5.wav,None,1000,3,342405,443,
P,NA,248400,sinestep5_catch.wav,2,352,3,344404,442,
P,NA,248400,sinestep3.wav,None,1000,3,346404,1101,
P,NA,248400,silence.wav,None,1000,3,348404,454,
P,NA,248400,vowelstep7.wav,None,1000,3,350404,451,
P,NA,248400,sinestep3_catch.wav,2,305,3,352404,463,
P,NA,248400,vowelstep5.wav,None,1000,3,354405,1128,
P,NA,248400,silence.wav,None,1000,3,356405,442,
P,NA,248400,sinestep1.wav,None,1000,3,358405,442,
P,NA,248400,vowelstep1.wav,None,1000,3,360405,450,
P,NA,248400,silence.wav,None,1000,3,362405,449,
P,NA,248400,silence.wav,None,1000,3,364405,451,
P,NA,248400,silence.wav,None,1000,3,366404,462,
P,NA,248400,sinestep1_catch.wav,None,1000,3,368404,442,
P,NA,248400,sinestep1.wav,None,1000,3,370404,441,
P,NA,248400,silence.wav,None,1000,3,372405,442,
P,NA,248400,vowelstep1_catch.wav,2,508,3,374405,451,
P,NA,248400,vowelstep5.wav,None,1000,3,376405,942,
P,NA,248400,sinestep5.wav,None,1000,3,378405,451,
P,NA,248400,vowelstep3.wav,None,1000,3,380405,460,
P,NA,248400,silence.wav,None,1000,3,382405,432,
P,NA,248400,silence.wav,None,1000,3,384405,442,
P,NA,248400,sinestep7.wav,None,1000,3,386405,440,
P,NA,248400,vowelstep5.wav,None,1000,3,388405,451,
P,NA,248400,silence.wav,None,1000,3,390406,451,
P,NA,248400,vowelstep3_catch.wav,2,392,3,392405,449,
P,NA,248400,silence.wav,None,1000,3,394405,1067,
P,NA,248400,vowelstep5.wav,None,1000,3,396405,428,
P,NA,248400,vowelstep5_catch.wav,2,472,3,398405,438,
P,NA,248400,vowelstep7_catch.wav,2,895,3,400405,966,
P,NA,248400,sinestep3.wav,None,1000,3,402405,555,
P,NA,248400,vowelstep5.wav,None,1000,3,404405,449,
P,NA,248400,vowelstep3.wav,None,1000,3,406406,447,
P,NA,248400,silence.wav,None,1000,3,408406,447,
P,NA,248400,sinestep3.wav,None,1000,3,410406,439,
P,NA,248400,silence.wav,None,1000,3,412406,436,
P,NA,248400,sinestep7_catch.wav,2,217,3,414406,439,
P,NA,248400,sinestep5_catch.wav,2,501,3,416405,1221,
P,NA,248400,sinestep5.wav,None,1000,3,418405,948,
P,NA,248400,sinestep5.wav,None,1000,3,420405,448,
P,NA,248400,vowelstep7.wav,None,1000,3,422405,448,
P,NA,248400,sinestep3_catch.wav,2,363,3,424406,427,
P,NA,248400,vowelstep1.wav,None,1000,3,426406,1073,
C,0,822365,sinestep1.wav,None,1000,3,822378,0,1.285
C,0,822365,vowelstep1.wav,None,1000,3,824378,254,3.285
C,0,822365,sinestep1.wav,None,1000,3,826379,326,5.285
C,0,822365,sinestep1.wav,None,1000,3,828379,328,7.285
C,0,822365,vowelstep1.wav,None,1000,3,830379,328,9.285
C,0,822365,sinestep1.wav,None,1000,3,832379,339,11.285
C,0,822365,sinestep7.wav,None,1000,3,834379,340,13.285
C,0,822365,vowelstep7.wav,None,1000,3,836379,340,15.285
C,0,822365,vowelstep3.wav,None,1000,3,838379,339,17.285
C,0,822365,vowelstep5.wav,None,1000,3,840379,329,19.285
C,0,822365,silence.wav,None,1000,3,842379,328,21.285
C,0,822365,sinestep3.wav,None,1000,3,844379,329,23.285
C,0,822365,vowelstep5.wav,None,1000,3,846379,329,25.285
C,0,822365,sinestep1.wav,None,1000,3,848379,338,27.285
C,0,822365,vowelstep1.wav,None,1000,3,850379,337,29.285
C,0,822365,vowelstep7.wav,None,1000,3,852379,347,31.285
C,0,822365,vowelstep3.wav,None,1000,3,854379,347,33.285
C,0,822365,sinestep1.wav,None,1000,3,856379,348,35.285
C,0,822365,sinestep5.wav,None,1000,3,858379,358,37.285
C,0,822365,silence.wav,None,1000,3,860379,337,39.285
C,0,822365,vowelstep7.wav,None,1000,3,862380,336,41.285
C,0,822365,vowelstep5.wav,None,1000,3,864380,332,43.285
C,0,822365,sinestep5.wav,None,1000,3,866380,334,45.285
C,0,822365,silence.wav,None,1000,3,868379,318,47.285
C,0,822365,sinestep5.wav,None,1000,3,870379,348,49.285
C,0,822365,sinestep1.wav,None,1000,3,872379,345,51.285
C,0,822365,silence.wav,None,1000,3,874379,358,53.285
C,0,822365,vowelstep1.wav,None,1000,3,876379,333,55.285
C,0,822365,vowelstep1.wav,None,1000,3,878380,336,57.285
C,0,822365,sinestep1.wav,None,1000,3,880380,337,59.285
C,0,822365,silence.wav,None,1000,3,882380,347,61.285
C,0,822365,vowelstep5.wav,None,1000,3,884380,346,63.285
C,0,822365,vowelstep3.wav,None,1000,3,886380,355,65.285
C,0,822365,vowelstep3.wav,None,1000,3,888380,326,67.285
C,0,822365,vowelstep7.wav,None,1000,3,890380,336,69.285
C,0,822365,silence.wav,None,1000,3,892379,335,71.285
C,0,822365,vowelstep3.wav,None,1000,3,894379,346,73.285
C,0,822365,silence.wav,None,1000,3,896380,343,75.285
C,0,822365,sinestep5.wav,None,1000,3,898380,345,77.285
C,0,822365,vowelstep7.wav,None,1000,3,900380,346,79.285
C,0,822365,vowelstep1_catch.wav,2,279,3,902380,349,81.285
C,0,822365,vowelstep3.wav,None,1000,3,904380,1056,83.285
C,0,822365,sinestep7.wav,None,1000,3,906380,334,85.285
C,0,822365,vowelstep3.wav,None,1000,3,908380,345,87.285
C,0,822365,sinestep1.wav,None,1000,3,910380,346,89.285
C,0,822365,sinestep7.wav,None,1000,3,912380,344,91.285
C,0,822365,sinestep7.wav,None,1000,3,914381,344,93.285
C,0,822365,sinestep3.wav,None,1000,3,916380,323,95.285
C,0,822365,vowelstep3_catch.wav,2,200,3,918380,333,97.285
C,0,822365,sinestep5.wav,None,1000,3,920380,1122,99.285
C,0,822365,sinestep5.wav,None,1000,3,922380,340,101.285
C,0,822365,vowelstep3.wav,None,1000,3,924380,343,103.285
C,0,822365,vowelstep5.wav,None,1000,3,926380,343,105.285
C,0,822365,sinestep1.wav,None,1000,3,928380,343,107.285
C,0,822365,sinestep3.wav,None,1000,3,930380,324,109.285
C,0,822365,vowelstep5.wav,None,1000,3,932381,325,111.285
C,0,822365,vowelstep7.wav,None,1000,3,934381,331,113.285
C,0,822365,vowelstep1.wav,None,1000,3,936381,333,115.285
C,0,822365,sinestep7.wav,None,1000,3,938381,342,117.285
C,0,822365,sinestep3.wav,None,1000,3,940380,342,119.285
C,0,822365,vowelstep1.wav,None,1000,3,942380,342,121.285
C,0,822365,vowelstep1.wav,None,1000,3,944380,349,123.285
C,0,822365,sinestep3.wav,None,1000,3,946380,333,125.285
C,0,822365,silence.wav,None,1000,3,948381,332,127.285
C,0,822365,silence.wav,None,1000,3,950381,331,129.285
C,0,822365,vowelstep5_catch.wav,2,403,3,952381,341,131.285
C,0,822365,vowelstep5.wav,None,1000,3,954381,937,133.285
C,0,822365,silence.wav,None,1000,3,956381,341,135.285
C,0,822365,sinestep1.wav,None,1000,3,958381,319,137.285
C,0,822365,vowelstep7.wav,None,1000,3,960381,331,139.285
C,0,822365,sinestep7.wav,None,1000,3,962381,332,141.285
C,0,822365,silence.wav,None,1000,3,964381,331,143.285
C,0,822365,silence.wav,None,1000,3,966381,340,145.285
C,0,822365,sinestep7.wav,None,1000,3,968381,340,147.285
C,0,822365,vowelstep1.wav,None,1000,3,970381,341,149.285
C,0,822365,vowelstep5.wav,None,1000,3,972381,341,151.285
C,0,822365,vowelstep5.wav,None,1000,3,974381,330,153.285
C,0,822365,vowelstep7.wav,None,1000,3,976381,329,155.285
C,0,822365,sinestep7.wav,None,1000,3,978381,331,157.285
C,0,822365,vowelstep1.wav,None,1000,3,980381,341,159.285
C,0,822365,vowelstep3.wav,None,1000,3,982381,341,161.285
C,0,822365,sinestep5.wav,None,1000,3,984382,340,163.285
C,0,822365,sinestep7.wav,None,1000,3,986382,349,165.285
C,0,822365,sinestep1.wav,None,1000,3,988382,329,167.285
C,0,822365,sinestep7.wav,None,1000,3,990381,329,169.285
C,0,822365,sinestep3.wav,None,1000,3,992381,327,171.285
C,0,822365,silence.wav,None,1000,3,994381,339,173.285
C,0,822365,vowelstep7.wav,None,1000,3,996381,339,175.285
C,0,822365,sinestep7.wav,None,1000,3,998381,339,177.285
C,0,822365,sinestep5.wav,None,1000,3,1000381,334,179.285
C,0,822365,vowelstep7.wav,None,1000,3,1002382,326,181.285
C,0,822365,vowelstep5.wav,None,1000,3,1004382,328,183.285
C,0,822365,vowelstep3.wav,None,1000,3,1006382,328,185.285
C,0,822365,vowelstep7_catch.wav,2,250,3,1008382,329,187.285
C,0,822365,vowelstep3.wav,None,1000,3,1010382,1088,189.285
C,0,822365,vowelstep5.wav,None,1000,3,1012382,338,191.285
C,0,822365,vowelstep7.wav,None,1000,3,1014381,348,193.285
C,0,822365,vowelstep7_catch.wav,2,319,3,1016381,348,195.285
C,0,822365,vowelstep5_catch.wav,2,322,3,1018382,1008,197.285
C,0,822365,sinestep5.wav,None,1000,3,1020382,1004,199.285
C,0,822365,sinestep3.wav,None,1000,3,1022382,328,201.285
C,0,822365,vowelstep3_catch.wav,2,225,3,1024382,337,203.285
C,0,822365,vowelstep1_catch.wav,2,447,3,1026382,1112,205.285
C,0,822365,vowelstep5.wav,None,1000,3,1028382,889,207.285
C,0,822365,vowelstep1.wav,None,1000,3,1030382,317,209.285
C,0,822365,sinestep1_catch.wav,2,213,3,1032382,327,211.285
C,0,822365,sinestep3_catch.wav,2,301,3,1034382,1113,213.285
C,0,822365,sinestep1.wav,None,1000,3,1036383,1025,215.285
C,0,822365,vowelstep3.wav,None,1000,3,1038382,336,217.285
C,0,822365,sinestep3.wav,None,1000,3,1040382,336,219.285
C,0,822365,vowelstep5.wav,None,1000,3,1042382,337,221.285
C,0,822365,sinestep7.wav,None,1000,3,1044382,346,223.285
C,0,822365,sinestep1.wav,None,1000,3,1046382,326,225.285
C,0,822365,sinestep5_catch.wav,2,264,3,1048382,326,227.285
C,0,822365,vowelstep7.wav,None,1000,3,1050382,1061,229.285
C,0,822365,vowelstep3.wav,None,1000,3,1052382,335,231.285
C,0,822365,silence.wav,None,1000,3,1054383,336,233.285
C,0,822365,vowelstep1.wav,None,1000,3,1056383,332,235.285
C,0,822365,sinestep5.wav,None,1000,3,1058383,314,237.285
C,0,822365,sinestep1.wav,None,1000,3,1060383,322,239.285
C,0,822365,vowelstep7.wav,None,1000,3,1062382,325,241.285
C,0,822365,sinestep3.wav,None,1000,3,1064382,325,243.285
C,0,822365,sinestep3.wav,None,1000,3,1066382,335,245.285
C,0,822365,sinestep5.wav,None,1000,3,1068382,333,247.285
C,0,822365,vowelstep3.wav,None,1000,3,1070382,335,249.285
C,0,822365,sinestep3.wav,None,1000,3,1072383,344,251.285
C,0,822365,silence.wav,None,1000,3,1074383,322,253.285
C,0,822365,sinestep3.wav,None,1000,3,1076383,320,255.285
C,0,822365,vowelstep1.wav,None,1000,3,1078383,325,257.285
C,0,822365,silence.wav,None,1000,3,1080383,335,259.285
C,0,822365,vowelstep1.wav,None,1000,3,1082383,333,261.285
C,0,822365,silence.wav,None,1000,3,1084383,332,263.285
C,0,822365,sinestep7.wav,None,1000,3,1086382,343,265.285
C,0,822365,sinestep3.wav,None,1000,3,1088383,323,267.285
C,0,822365,vowelstep1.wav,None,1000,3,1090383,344,269.285
C,0,822365,sinestep7.wav,None,1000,3,1092383,342,271.285
C,0,822365,sinestep7_catch.wav,2,283,3,1094383,328,273.285
C,0,822365,vowelstep5.wav,None,1000,3,1096383,1049,275.285
C,0,822365,silence.wav,None,1000,3,1098383,332,277.285
C,0,822365,silence.wav,None,1000,3,1100383,343,279.285
C,0,822365,sinestep3.wav,None,1000,3,1102383,343,281.285
C,0,822365,vowelstep7.wav,None,1000,3,1104383,343,283.285
C,0,822365,sinestep5.wav,None,1000,3,1106384,342,285.285
C,0,822365,sinestep5.wav,None,1000,3,1108384,332,287.285
C,0,822365,vowelstep3.wav,None,1000,3,1110383,332,289.285
C,0,822365,sinestep3.wav,None,1000,3,1112383,331,291.285
C,0,822365,silence.wav,None,1000,3,1114383,331,293.285
C,0,822365,silence.wav,None,1000,3,1116383,342,295.285
C,0,822365,vowelstep7.wav,None,1000,3,1118383,340,297.285
C,0,822365,silence.wav,None,1000,3,1120383,341,299.285
C,0,822365,vowelstep5.wav,None,1000,3,1122383,321,301.285
C,0,822365,sinestep5.wav,None,1000,3,1124384,330,303.285
C,0,822365,silence.wav,None,1000,3,1126384,331,305.285
C,0,822365,silence.wav,None,1000,3,1128384,341,307.285
C,0,822365,silence.wav,None,1000,3,1130384,341,309.285
C,0,822365,sinestep7_catch.wav,2,503,3,1132384,340,311.285
C,0,822365,sinestep7.wav,None,1000,3,1134383,837,313.285
C,0,822365,sinestep5_catch.wav,2,307,3,1136383,331,315.285
C,0,822365,sinestep5.wav,None,1000,3,1138383,1022,317.285
C,0,822365,sinestep3_catch.wav,2,554,3,1140384,331,319.285
H,1,1216358,sinestep3.wav,None,1000,3,1216368,0,1.285
H,1,1216358,sinestep7.wav,None,1000,3,1218368,348,3.285
H,1,1216358,sinestep3.wav,None,1000,3,1220368,338,5.285
H,1,1216358,vowelstep3.wav,None,1000,3,1222368,337,7.285
H,1,1216358,vowelstep1.wav,None,1000,3,1224368,339,9.285
H,1,1216358,sinestep7.wav,None,1000,3,1226368,337,11.285
H,1,1216358,vowelstep3.wav,None,1000,3,1228369,251,13.285
H,1,1216358,silence.wav,None,1000,3,1230369,337,15.285
H,1,1216358,vowelstep1.wav,None,1000,3,1232369,357,17.285
H,1,1216358,sinestep5.wav,None,1000,3,1234369,337,19.285
H,1,1216358,sinestep7.wav,None,1000,3,1236369,337,21.285
H,1,1216358,vowelstep7.wav,None,1000,3,1238369,336,23.285
H,1,1216358,vowelstep1_catch.wav,2,57,3,1240368,347,25.285
H,1,1216358,sinestep5.wav,None,1000,3,1242368,1290,27.285
H,1,1216358,vowelstep5.wav,None,1000,3,1244368,347,29.285
H,1,1216358,silence.wav,None,1000,3,1246369,345,31.285
H,1,1216358,vowelstep3_catch.wav,2,467,3,1248369,247,33.285
H,1,1216358,sinestep7.wav,None,1000,3,1250369,869,35.285
H,1,1216358,sinestep5.wav,None,1000,3,1252369,335,37.285
H,1,1216358,silence.wav,None,1000,3,1254369,337,39.285
H,1,1216358,vowelstep3.wav,None,1000,3,1256369,347,41.285
H,1,1216358,vowelstep1.wav,None,1000,3,1258369,346,43.285
H,1,1216358,vowelstep1.wav,None,1000,3,1260369,345,45.285
H,1,1216358,vowelstep3.wav,None,1000,3,1262369,354,47.285
H,1,1216358,sinestep3.wav,None,1000,3,1264369,335,49.285
H,1,1216358,vowelstep1.wav,None,1000,3,1266369,334,51.285
H,1,1216358,sinestep7.wav,None,1000,3,1268369,334,53.285
H,1,1216358,vowelstep7.wav,None,1000,3,1270369,344,55.285
H,1,1216358,vowelstep5_catch.wav,2,338,3,1272369,344,57.285
H,1,1216358,vowelstep5.wav,None,1000,3,1274369,1006,59.285
H,1,1216358,vowelstep3.wav,None,1000,3,1276369,323,61.285
H,1,1216358,vowelstep7_catch.wav,2,303,3,1278369,334,63.285
H,1,1216358,sinestep3.wav,None,1000,3,1280370,1031,65.285
H,1,1216358,sinestep1.wav,None,1000,3,1282370,334,67.285
H,1,1216358,sinestep7.wav,None,1000,3,1284370,343,69.285
H,1,1216358,silence.wav,None,1000,3,1286370,344,71.285
H,1,1216358,vowelstep1.wav,None,1000,3,1288369,344,73.285
H,1,1216358,vowelstep7.wav,None,1000,3,1290369,229,75.285
H,1,1216358,sinestep7.wav,None,1000,3,1292369,334,77.285
H,1,1216358,sinestep1.wav,None,1000,3,1294369,334,79.285
H,1,1216358,sinestep7.wav,None,1000,3,1296369,330,81.285
H,1,1216358,sinestep1.wav,None,1000,3,1298370,343,83.285
H,1,1216358,vowelstep5.wav,None,1000,3,1300370,343,85.285
H,1,1216358,sinestep3.wav,None,1000,3,1302370,343,87.285
H,1,1216358,vowelstep5.wav,None,1000,3,1304370,321,89.285
H,1,1216358,silence.wav,None,1000,3,1306370,333,91.285
H,1,1216358,silence.wav,None,1000,3,1308370,333,93.285
H,1,1216358,sinestep5.wav,None,1000,3,1310370,328,95.285
H,1,1216358,sinestep3.wav,None,1000,3,1312369,342,97.285
H,1,1216358,sinestep7.wav,None,1000,3,1314369,343,99.285
H,1,1216358,sinestep7_catch.wav,2,60,3,1316370,342,101.285
H,1,1216358,silence.wav,None,1000,3,1318370,1291,103.285
H,1,1216358,sinestep3.wav,None,1000,3,1320370,331,105.285
H,1,1216358,silence.wav,None,1000,3,1322370,333,107.285
H,1,1216358,vowelstep1.wav,None,1000,3,1324370,332,109.285
H,1,1216358,vowelstep7.wav,None,1000,3,1326370,342,111.285
H,1,1216358,sinestep5.wav,None,1000,3,1328370,342,113.285
H,1,1216358,silence.wav,None,1000,3,1330370,341,115.285
H,1,1216358,vowelstep7.wav,None,1000,3,1332370,350,117.285
H,1,1216358,vowelstep3.wav,None,1000,3,1334371,330,119.285
H,1,1216358,sinestep5.wav,None,1000,3,1336370,331,121.285
H,1,1216358,sinestep1.wav,None,1000,3,1338370,330,123.285
H,1,1216358,vowelstep3.wav,None,1000,3,1340370,328,125.285
H,1,1216358,vowelstep3.wav,None,1000,3,1342370,340,127.285
H,1,1216358,vowelstep5.wav,None,1000,3,1344370,340,129.285
H,1,1216358,vowelstep1.wav,None,1000,3,1346370,348,131.285
H,1,1216358,vowelstep7.wav,None,1000,3,1348370,317,133.285
H,1,1216358,vowelstep3.wav,None,1000,3,1350371,330,135.285
H,1,1216358,vowelstep5.wav,None,1000,3,1352371,330,137.285
H,1,1216358,vowelstep5.wav,None,1000,3,1354371,340,139.285
H,1,1216358,sinestep7.wav,None,1000,3,1356371,340,141.285
H,1,1216358,vowelstep1.wav,None,1000,3,1358371,340,143.285
H,1,1216358,sinestep3.wav,None,1000,3,1360370,339,145.285
H,1,1216358,sinestep1.wav,None,1000,3,1362370,346,147.285
H,1,1216358,vowelstep1.wav,None,1000,3,1364370,329,149.285
H,1,1216358,sinestep5_catch.wav,2,316,3,1366370,328,151.285
H,1,1216358,sinestep7.wav,None,1000,3,1368371,1014,153.285
H,1,1216358,sinestep3_catch.wav,2,362,3,1370371,339,155.285
H,1,1216358,sinestep7.wav,None,1000,3,1372371,976,157.285
H,1,1216358,sinestep5.wav,None,1000,3,1374371,347,159.285
H,1,1216358,silence.wav,None,1000,3,1376371,318,161.285
H,1,1216358,sinestep1_catch.wav,2,467,3,1378371,329,163.285
H,1,1216358,vowelstep7.wav,None,1000,3,1380371,861,165.285
H,1,1216358,vowelstep7.wav,None,1000,3,1382371,335,167.285
H,1,1216358,sinestep7.wav,None,1000,3,1384370,338,169.285
H,1,1216358,sinestep3.wav,None,1000,3,1386371,332,171.285
H,1,1216358,sinestep5.wav,None,1000,3,1388371,333,173.285
H,1,1216358,vowelstep1_catch.wav,2,69,3,1390371,343,175.285
H,1,1216358,vowelstep1.wav,None,1000,3,1392371,1254,177.285
H,1,1216358,sinestep3.wav,None,1000,3,1394371,327,179.285
H,1,1216358,sinestep3.wav,None,1000,3,1396371,337,181.285
H,1,1216358,vowelstep5.wav,None,1000,3,1398371,337,183.285
H,1,1216358,sinestep1.wav,None,1000,3,1400371,338,185.285
H,1,1216358,sinestep1.wav,None,1000,3,1402371,338,187.285
H,1,1216358,vowelstep7.wav,None,1000,3,1404372,347,189.285
H,1,1216358,sinestep1.wav,None,1000,3,1406372,326,191.285
H,1,1216358,sinestep5.wav,None,1000,3,1408371,21,193.285
H,1,1216358,vowelstep3_catch.wav,2,135,3,1410371,326,195.285
H,1,1216358,sinestep1.wav,None,1000,3,1412371,1200,197.285
H,1,1216358,silence.wav,None,1000,3,1414371,332,199.285
H,1,1216358,vowelstep1.wav,None,1000,3,1416371,337,201.285
H,1,1216358,vowelstep5_catch.wav,2,577,3,1418371,342,203.285
H,1,1216358,sinestep5.wav,None,1000,3,1420372,748,205.285
H,1,1216358,sinestep1.wav,None,1000,3,1422372,345,207.285
H,1,1216358,silence.wav,None,1000,3,1424372,353,209.285
H,1,1216358,sinestep3.wav,None,1000,3,1426372,335,211.285
H,1,1216358,silence.wav,None,1000,3,1428372,335,213.285
H,1,1216358,vowelstep7_catch.wav,2,529,3,1430372,336,215.285
H,1,1216358,vowelstep5.wav,None,1000,3,1432372,806,217.285
H,1,1216358,sinestep7.wav,None,1000,3,1434371,346,219.285
H,1,1216358,silence.wav,None,1000,3,1436371,346,221.285
H,1,1216358,sinestep1.wav,None,1000,3,1438372,353,223.285
H,1,1216358,silence.wav,None,1000,3,1440372,324,225.285
H,1,1216358,silence.wav,None,1000,3,1442372,334,227.285
H,1,1216358,silence.wav,None,1000,3,1444372,334,229.285
H,1,1216358,silence.wav,None,1000,3,1446372,344,231.285
H,1,1216358,sinestep5.wav,None,1000,3,1448372,343,233.285
H,1,1216358,silence.wav,None,1000,3,1450372,344,235.285
H,1,1216358,vowelstep3.wav,None,1000,3,1452372,355,237.285
H,1,1216358,silence.wav,None,1000,3,1454372,334,239.285
H,1,1216358,silence.wav,None,1000,3,1456373,330,241.285
H,1,1216358,vowelstep1_catch.wav,2,429,3,1458372,328,243.285
H,1,1216358,vowelstep5.wav,None,1000,3,1460372,905,245.285
H,1,1216358,vowelstep7.wav,None,1000,3,1462372,342,247.285
H,1,1216358,vowelstep3_catch.wav,2,445,3,1464372,342,249.285
H,1,1216358,vowelstep1.wav,None,1000,3,1466372,907,251.285
H,1,1216358,sinestep3.wav,None,1000,3,1468372,323,253.285
H,1,1216358,vowelstep5_catch.wav,2,350,3,1470372,333,255.285
H,1,1216358,vowelstep5.wav,None,1000,3,1472372,983,257.285
H,1,1216358,silence.wav,None,1000,3,1474373,342,259.285
H,1,1216358,vowelstep7.wav,None,1000,3,1476373,339,261.285
H,1,1216358,sinestep5.wav,None,1000,3,1478373,341,263.285
H,1,1216358,vowelstep5.wav,None,1000,3,1480373,350,265.285
H,1,1216358,vowelstep7.wav,None,1000,3,1482372,322,267.285
H,1,1216358,vowelstep3.wav,None,1000,3,1484372,328,269.285
H,1,1216358,vowelstep3.wav,None,1000,3,1486372,332,271.285
H,1,1216358,silence.wav,None,1000,3,1488372,341,273.285
H,1,1216358,vowelstep3.wav,None,1000,3,1490373,342,275.285
H,1,1216358,sinestep1.wav,None,1000,3,1492373,340,277.285
H,1,1216358,silence.wav,None,1000,3,1494373,340,279.285
H,1,1216358,sinestep1.wav,None,1000,3,1496373,349,281.285
H,1,1216358,vowelstep3.wav,None,1000,3,1498373,328,283.285
H,1,1216358,silence.wav,None,1000,3,1500373,331,285.285
H,1,1216358,vowelstep5.wav,None,1000,3,1502373,330,287.285
H,1,1216358,vowelstep5.wav,None,1000,3,1504373,341,289.285
H,1,1216358,vowelstep1.wav,None,1000,3,1506372,338,291.285
H,1,1216358,sinestep5.wav,None,1000,3,1508373,348,293.285
H,1,1216358,vowelstep7.wav,None,1000,3,1510373,319,295.285
H,1,1216358,vowelstep1.wav,None,1000,3,1512373,326,297.285
H,1,1216358,vowelstep7.wav,None,1000,3,1514373,325,299.285
H,1,1216358,vowelstep3.wav,None,1000,3,1516373,340,301.285
H,1,1216358,sinestep1.wav,None,1000,3,1518373,340,303.285
H,1,1216358,sinestep5.wav,None,1000,3,1520373,339,305.285
H,1,1216358,vowelstep5.wav,None,1000,3,1522373,340,307.285
H,1,1216358,sinestep3.wav,None,1000,3,1524373,330,309.285
H,1,1216358,vowelstep7.wav,None,1000,3,1526374,330,311.285
H,1,1216358,sinestep7.wav,None,1000,3,1528374,329,313.285
H,1,1216358,sinestep5.wav,None,1000,3,1530373,329,315.285
H,1,1216358,sinestep3.wav,None,1000,3,1532373,340,317.285
H,1,1216358,sinestep1.wav,None,1000,3,1534373,339,319.285
E,2,1591953,vowelstep7.wav,None,1000,3,1591957,0,1.285
E,2,1591953,sinestep3.wav,None,1000,3,1593957,350,3.285
E,2,1591953,sinestep5.wav,None,1000,3,1595958,360,5.285
E,2,1591953,sinestep1.wav,None,1000,3,1597958,339,7.285
E,2,1591953,sinestep5.wav,None,1000,3,1599958,341,9.285
E,2,1591953,silence.wav,None,1000,3,1601958,340,11.285
E,2,1591953,vowelstep1.wav,None,1000,3,1603958,351,13.285
E,2,1591953,vowelstep7.wav,None,1000,3,1605958,350,15.285
E,2,1591953,vowelstep1.wav,None,1000,3,1607958,348,17.285
E,2,1591953,sinestep1_catch.wav,2,101,3,1609958,336,19.285
E,2,1591953,vowelstep5.wav,None,1000,3,1611957,1234,21.285
E,2,1591953,sinestep5.wav,None,1000,3,1613958,335,23.285
E,2,1591953,vowelstep5.wav,None,1000,3,1615958,345,25.285
E,2,1591953,vowelstep3.wav,None,1000,3,1617958,344,27.285
E,2,1591953,sinestep1.wav,None,1000,3,1619958,343,29.285
E,2,1591953,vowelstep5.wav,None,1000,3,1621958,324,31.285
E,2,1591953,silence.wav,None,1000,3,1623958,335,33.285
E,2,1591953,silence.wav,None,1000,3,1625958,334,35.285
E,2,1591953,sinestep3.wav,None,1000,3,1627958,334,37.285
E,2,1591953,sinestep3.wav,None,1000,3,1629959,344,39.285
E,2,1591953,sinestep3.wav,None,1000,3,1631959,343,41.285
E,2,1591953,sinestep1.wav,None,1000,3,1633959,344,43.285
E,2,1591953,vowelstep1.wav,None,1000,3,1635958,343,45.285
E,2,1591953,sinestep1.wav,None,1000,3,1637958,353,47.285
E,2,1591953,vowelstep7.wav,None,1000,3,1639958,335,49.285
E,2,1591953,vowelstep5.wav,None,1000,3,1641958,360,51.285
E,2,1591953,sinestep7.wav,None,1000,3,1643958,333,53.285
E,2,1591953,sinestep1.wav,None,1000,3,1645958,344,55.285
E,2,1591953,vowelstep5.wav,None,1000,3,1647959,343,57.285
E,2,1591953,sinestep3.wav,None,1000,3,1649959,354,59.285
E,2,1591953,vowelstep1.wav,None,1000,3,1651959,353,61.285
E,2,1591953,vowelstep5.wav,None,1000,3,1653959,332,63.285
E,2,1591953,vowelstep3.wav,None,1000,3,1655959,356,65.285
E,2,1591953,sinestep1.wav,None,1000,3,1657959,343,67.285
E,2,1591953,vowelstep3.wav,None,1000,3,1659958,343,69.285
E,2,1591953,silence.wav,None,1000,3,1661958,342,71.285
E,2,1591953,vowelstep3.wav,None,1000,3,1663958,351,73.285
E,2,1591953,sinestep3_catch.wav,2,265,3,1665959,352,75.285
E,2,1591953,sinestep3.wav,None,1000,3,1667959,1085,77.285
E,2,1591953,vowelstep3.wav,None,1000,3,1669959,350,79.285
E,2,1591953,vowelstep7.wav,None,1000,3,1671959,361,81.285
E,2,1591953,silence.wav,None,1000,3,1673959,341,83.285
E,2,1591953,sinestep3.wav,None,1000,3,1675959,341,85.285
E,2,1591953,silence.wav,None,1000,3,1677959,350,87.285
E,2,1591953,sinestep1.wav,None,1000,3,1679959,349,89.285
E,2,1591953,sinestep5_catch.wav,2,295,3,1681959,352,91.285
E,2,1591953,vowelstep3.wav,None,1000,3,1683959,1054,93.285
E,2,1591953,sinestep5.wav,None,1000,3,1685959,330,95.285
E,2,1591953,vowelstep7.wav,None,1000,3,1687959,340,97.285
E,2,1591953,sinestep1.wav,None,1000,3,1689959,340,99.285
E,2,1591953,sinestep5.wav,None,1000,3,1691959,350,101.285
E,2,1591953,sinestep5.wav,None,1000,3,1693959,350,103.285
E,2,1591953,vowelstep7.wav,None,1000,3,1695959,350,105.285
E,2,1591953,vowelstep3.wav,None,1000,3,1697959,350,107.285
E,2,1591953,vowelstep7.wav,None,1000,3,1699960,340,109.285
E,2,1591953,sinestep5.wav,None,1000,3,1701960,339,111.285
E,2,1591953,vowelstep3.wav,None,1000,3,1703960,339,113.285
E,2,1591953,vowelstep7.wav,None,1000,3,1705960,338,115.285
E,2,1591953,sinestep3.wav,None,1000,3,1707959,348,117.285
E,2,1591953,vowelstep7.wav,None,1000,3,1709959,349,119.285
E,2,1591953,silence.wav,None,1000,3,1711959,359,121.285
E,2,1591953,silence.wav,None,1000,3,1713959,330,123.285
E,2,1591953,sinestep7.wav,None,1000,3,1715959,303,125.285
E,2,1591953,sinestep7_catch.wav,2,331,3,1717960,338,127.285
E,2,1591953,sinestep7.wav,None,1000,3,1719960,1013,129.285
E,2,1591953,silence.wav,None,1000,3,1721960,348,131.285
E,2,1591953,sinestep7_catch.wav,2,405,3,1723960,348,133.285
E,2,1591953,sinestep7.wav,None,1000,3,1725960,942,135.285
E,2,1591953,sinestep5_catch.wav,None,1000,3,1727960,328,137.285
E,2,1591953,sinestep1.wav,None,1000,3,1729960,338,139.285
E,2,1591953,sinestep1.wav,None,1000,3,1731959,338,141.285
E,2,1591953,sinestep1.wav,None,1000,3,1733959,335,143.285
E,2,1591953,sinestep3.wav,None,1000,3,1735960,346,145.285
E,2,1591953,vowelstep5.wav,None,1000,3,1737960,345,147.285
E,2,1591953,silence.wav,None,1000,3,1739960,347,149.285
E,2,1591953,sinestep3_catch.wav,1,561,3,1741960,357,151.285
E,2,1591953,silence.wav,None,1000,3,1743960,774,153.285
E,2,1591953,sinestep7.wav,None,1000,3,1745960,337,155.285
E,2,1591953,sinestep5.wav,None,1000,3,1747960,336,157.285
E,2,1591953,silence.wav,None,1000,3,1749960,337,159.285
E,2,1591953,vowelstep5.wav,None,1000,3,1751960,348,161.285
E,2,1591953,vowelstep1.wav,None,1000,3,1753961,347,163.285
E,2,1591953,vowelstep3.wav,None,1000,3,1755960,356,165.285
E,2,1591953,sinestep5.wav,None,1000,3,1757960,336,167.285
E,2,1591953,sinestep7.wav,None,1000,3,1759960,336,169.285
E,2,1591953,vowelstep1.wav,None,1000,3,1761960,336,171.285
E,2,1591953,vowelstep7.wav,None,1000,3,1763960,341,173.285
E,2,1591953,sinestep3.wav,None,1000,3,1765960,346,175.285
E,2,1591953,silence.wav,None,1000,3,1767960,345,177.285
E,2,1591953,sinestep1_catch.wav,1,225,3,1769961,355,179.285
E,2,1591953,sinestep7.wav,None,1000,3,1771961,1109,181.285
E,2,1591953,vowelstep1.wav,None,1000,3,1773961,335,183.285
E,2,1591953,sinestep5.wav,None,1000,3,1775961,334,185.285
E,2,1591953,sinestep5.wav,None,1000,3,1777961,335,187.285
E,2,1591953,vowelstep1.wav,None,1000,3,1779960,344,189.285
E,2,1591953,sinestep7.wav,None,1000,3,1781960,344,191.285
E,2,1591953,sinestep3.wav,None,1000,3,1783960,354,193.285
E,2,1591953,sinestep7.wav,None,1000,3,1785960,325,195.285
E,2,1591953,silence.wav,None,1000,3,1787961,334,197.285
E,2,1591953,vowelstep1.wav,None,1000,3,1789961,333,199.285
E,2,1591953,sinestep1.wav,None,1000,3,1791961,343,201.285
E,2,1591953,vowelstep1.wav,None,1000,3,1793961,344,203.285
E,2,1591953,vowelstep1.wav,None,1000,3,1795961,342,205.285
E,2,1591953,vowelstep1_catch.wav,1,196,3,1797961,344,207.285
E,2,1591953,vowelstep1.wav,None,1000,3,1799961,1136,209.285
E,2,1591953,vowelstep1.wav,None,1000,3,1801961,333,211.285
E,2,1591953,silence.wav,None,1000,3,1803961,333,213.285
E,2,1591953,sinestep7.wav,None,1000,3,1805961,339,215.285
E,2,1591953,vowelstep7.wav,None,1000,3,1807961,343,217.285
E,2,1591953,vowelstep3_catch.wav,1,146,3,1809961,342,219.285
E,2,1591953,vowelstep5.wav,None,1000,3,1811961,1195,221.285
E,2,1591953,sinestep3.wav,None,1000,3,1813961,333,223.285
E,2,1591953,silence.wav,None,1000,3,1815961,331,225.285
E,2,1591953,sinestep1.wav,None,1000,3,1817961,333,227.285
E,2,1591953,sinestep5.wav,None,1000,3,1819961,332,229.285
E,2,1591953,sinestep5.wav,None,1000,3,1821961,342,231.285
E,2,1591953,sinestep3.wav,None,1000,3,1823962,342,233.285
E,2,1591953,sinestep5.wav,None,1000,3,1825962,341,235.285
E,2,1591953,vowelstep3.wav,None,1000,3,1827961,321,237.285
E,2,1591953,sinestep7.wav,None,1000,3,1829961,331,239.285
E,2,1591953,sinestep7.wav,None,1000,3,1831961,331,241.285
E,2,1591953,silence.wav,None,1000,3,1833961,331,243.285
E,2,1591953,sinestep3.wav,None,1000,3,1835961,338,245.285
E,2,1591953,sinestep3.wav,None,1000,3,1837961,340,247.285
E,2,1591953,vowelstep3.wav,None,1000,3,1839962,341,249.285
E,2,1591953,silence.wav,None,1000,3,1841962,351,251.285
E,2,1591953,sinestep7.wav,None,1000,3,1843962,329,253.285
E,2,1591953,silence.wav,None,1000,3,1845962,330,255.285
E,2,1591953,vowelstep7.wav,None,1000,3,1847962,323,257.285
E,2,1591953,vowelstep3.wav,None,1000,3,1849962,341,259.285
E,2,1591953,silence.wav,None,1000,3,1851962,341,261.285
E,2,1591953,vowelstep3.wav,None,1000,3,1853961,351,263.285
E,2,1591953,vowelstep1.wav,None,1000,3,1855961,321,265.285
E,2,1591953,vowelstep5.wav,None,1000,3,1857962,330,267.285
E,2,1591953,silence.wav,None,1000,3,1859962,330,269.285
E,2,1591953,vowelstep3.wav,None,1000,3,1861962,329,271.285
E,2,1591953,sinestep1.wav,None,1000,3,1863962,337,273.285
E,2,1591953,vowelstep5_catch.wav,1,162,3,1865962,339,275.285
E,2,1591953,sinestep7.wav,None,1000,3,1867962,1176,277.285
E,2,1591953,sinestep7.wav,None,1000,3,1869962,349,279.285
E,2,1591953,vowelstep7.wav,None,1000,3,1871962,327,281.285
E,2,1591953,silence.wav,None,1000,3,1873962,326,283.285
E,2,1591953,sinestep5.wav,None,1000,3,1875963,326,285.285
E,2,1591953,silence.wav,None,1000,3,1877962,338,287.285
E,2,1591953,silence.wav,None,1000,3,1879962,339,289.285
E,2,1591953,vowelstep5.wav,None,1000,3,1881962,339,291.285
E,2,1591953,vowelstep5.wav,None,1000,3,1883962,348,293.285
E,2,1591953,silence.wav,None,1000,3,1885962,328,295.285
E,2,1591953,vowelstep5.wav,None,1000,3,1887962,328,297.285
E,2,1591953,vowelstep7_catch.wav,1,372,3,1889962,348,299.285
E,2,1591953,vowelstep7_catch.wav,1,468,3,1891962,966,301.285
E,2,1591953,vowelstep5.wav,None,1000,3,1893963,868,303.285
E,2,1591953,sinestep1.wav,None,1000,3,1895963,337,305.285
E,2,1591953,vowelstep3.wav,None,1000,3,1897963,347,307.285
E,2,1591953,vowelstep5_catch.wav,1,165,3,1899963,346,309.285
E,2,1591953,vowelstep7.wav,None,1000,3,1901962,1105,311.285
E,2,1591953,vowelstep5.wav,None,1000,3,1903962,347,313.285
E,2,1591953,vowelstep7.wav,None,1000,3,1905962,336,315.285
E,2,1591953,vowelstep1.wav,None,1000,3,1907962,337,317.285
E,2,1591953,vowelstep3_catch.wav,1,254,3,1909963,336,319.285
F,3,1966002,sinestep1.wav,None,1000,3,1966014,0,1.285
F,3,1966002,vowelstep5.wav,None,1000,3,1968014,341,3.285
F,3,1966002,vowelstep3.wav,None,1000,3,1970014,342,5.285
F,3,1966002,sinestep5.wav,None,1000,3,1972014,342,7.285
F,3,1966002,vowelstep7.wav,None,1000,3,1974013,322,9.285
F,3,1966002,silence.wav,None,1000,3,1976013,332,11.285
F,3,1966002,vowelstep5.wav,None,1000,3,1978013,332,13.285
F,3,1966002,sinestep3.wav,None,1000,3,1980014,328,15.285
F,3,1966002,sinestep3.wav,None,1000,3,1982014,341,17.285
F,3,1966002,silence.wav,None,1000,3,1984014,341,19.285
F,3,1966002,vowelstep7.wav,None,1000,3,1986014,342,21.285
F,3,1966002,vowelstep7.wav,None,1000,3,1988014,321,23.285
F,3,1966002,vowelstep1_catch.wav,1,406,3,1990014,331,25.285
F,3,1966002,vowelstep3_catch.wav,1,723,3,1992014,925,27.285
F,3,1966002,vowelstep1.wav,None,1000,3,1994014,553,29.285
F,3,1966002,sinestep5.wav,None,1000,3,1996014,340,31.285
F,3,1966002,sinestep5.wav,None,1000,3,1998014,337,33.285
F,3,1966002,vowelstep7.wav,None,1000,3,2000014,338,35.285
F,3,1966002,sinestep3.wav,None,1000,3,2002014,349,37.285
F,3,1966002,sinestep7.wav,None,1000,3,2004014,330,39.285
F,3,1966002,vowelstep5_catch.wav,1,428,3,2006014,330,41.285
F,3,1966002,sinestep1.wav,None,1000,3,2008014,902,43.285
F,3,1966002,vowelstep7_catch.wav,1,510,3,2010014,340,45.285
F,3,1966002,vowelstep3.wav,None,1000,3,2012014,828,47.285
F,3,1966002,sinestep1.wav,None,1000,3,2014014,340,49.285
F,3,1966002,sinestep7.wav,None,1000,3,2016015,349,51.285
F,3,1966002,silence.wav,None,1000,3,2018015,328,53.285
F,3,1966002,sinestep7.wav,None,1000,3,2020015,329,55.285
F,3,1966002,vowelstep1.wav,None,1000,3,2022014,328,57.285
F,3,1966002,vowelstep3.wav,None,1000,3,2024014,329,59.285
F,3,1966002,vowelstep7_catch.wav,1,249,3,2026014,339,61.285
F,3,1966002,sinestep5.wav,None,1000,3,2028014,1085,63.285
F,3,1966002,sinestep3.wav,None,1000,3,2030014,347,65.285
F,3,1966002,vowelstep3.wav,None,1000,3,2032014,348,67.285
F,3,1966002,silence.wav,None,1000,3,2034015,325,69.285
F,3,1966002,vowelstep1.wav,None,1000,3,2036015,326,71.285
F,3,1966002,vowelstep1.wav,None,1000,3,2038015,327,73.285
F,3,1966002,vowelstep5_catch.wav,1,344,3,2040015,338,75.285
F,3,1966002,silence.wav,None,1000,3,2042015,991,77.285
F,3,1966002,vowelstep3.wav,None,1000,3,2044015,347,79.285
F,3,1966002,vowelstep5.wav,None,1000,3,2046014,318,81.285
F,3,1966002,vowelstep3_catch.wav,1,69,3,2048014,327,83.285
F,3,1966002,vowelstep3.wav,None,1000,3,2050015,1256,85.285
F,3,1966002,sinestep7.wav,None,1000,3,2052015,336,87.285
F,3,1966002,vowelstep1.wav,None,1000,3,2054015,336,89.285
F,3,1966002,sinestep1.wav,None,1000,3,2056015,338,91.285
F,3,1966002,vowelstep1_catch.wav,1,25,3,2058015,347,93.285
F,3,1966002,vowelstep5.wav,None,1000,3,2060015,1320,95.285
F,3,1966002,sinestep7.wav,None,1000,3,2062015,327,97.285
F,3,1966002,vowelstep7.wav,None,1000,3,2064015,327,99.285
F,3,1966002,vowelstep3.wav,None,1000,3,2066015,322,101.285
F,3,1966002,sinestep3.wav,None,1000,3,2068016,336,103.285
F,3,1966002,silence.wav,None,1000,3,2070015,335,105.285
F,3,1966002,sinestep1.wav,None,1000,3,2072015,346,107.285
F,3,1966002,sinestep1.wav,None,1000,3,2074015,315,109.285
F,3,1966002,silence.wav,None,1000,3,2076015,326,111.285
F,3,1966002,sinestep7.wav,None,1000,3,2078015,321,113.285
F,3,1966002,vowelstep3.wav,None,1000,3,2080015,335,115.285
F,3,1966002,sinestep3.wav,None,1000,3,2082015,335,117.285
F,3,1966002,vowelstep3.wav,None,1000,3,2084015,333,119.285
F,3,1966002,vowelstep7.wav,None,1000,3,2086016,335,121.285
F,3,1966002,vowelstep7.wav,None,1000,3,2088016,320,123.285
F,3,1966002,vowelstep5.wav,None,1000,3,2090016,324,125.285
F,3,1966002,sinestep1.wav,None,1000,3,2092016,324,127.285
F,3,1966002,silence.wav,None,1000,3,2094016,322,129.285
F,3,1966002,sinestep1.wav,None,1000,3,2096015,335,131.285
F,3,1966002,sinestep3.wav,None,1000,3,2098015,334,133.285
F,3,1966002,sinestep1_catch.wav,1,177,3,2100015,334,135.285
F,3,1966002,sinestep3.wav,None,1000,3,2102016,1166,137.285
F,3,1966002,sinestep3.wav,None,1000,3,2104016,323,139.285
F,3,1966002,silence.wav,None,1000,3,2106016,323,141.285
F,3,1966002,silence.wav,None,1000,3,2108016,324,143.285
F,3,1966002,sinestep7.wav,None,1000,3,2110016,334,145.285
F,3,1966002,sinestep5.wav,None,1000,3,2112016,334,147.285
F,3,1966002,vowelstep1.wav,None,1000,3,2114016,333,149.285
F,3,1966002,sinestep7.wav,None,1000,3,2116016,313,151.285
F,3,1966002,silence.wav,None,1000,3,2118016,323,153.285
F,3,1966002,sinestep3_catch.wav,1,675,3,2120016,323,155.285
F,3,1966002,vowelstep5.wav,None,1000,3,2122016,677,157.285
F,3,1966002,sinestep3.wav,None,1000,3,2124016,332,159.285
F,3,1966002,vowelstep5.wav,None,1000,3,2126016,332,161.285
F,3,1966002,sinestep3.wav,None,1000,3,2128016,333,163.285
F,3,1966002,vowelstep3.wav,None,1000,3,2130016,332,165.285
F,3,1966002,vowelstep1.wav,None,1000,3,2132016,323,167.285
F,3,1966002,sinestep5.wav,None,1000,3,2134016,321,169.285
F,3,1966002,vowelstep5.wav,None,1000,3,2136016,322,171.285
F,3,1966002,vowelstep1.wav,None,1000,3,2138017,322,173.285
F,3,1966002,vowelstep1.wav,None,1000,3,2140017,331,175.285
F,3,1966002,sinestep7.wav,None,1000,3,2142017,331,177.285
F,3,1966002,vowelstep1.wav,None,1000,3,2144016,341,179.285
F,3,1966002,sinestep5.wav,None,1000,3,2146016,339,181.285
F,3,1966002,vowelstep7.wav,None,1000,3,2148016,341,183.285
F,3,1966002,sinestep1.wav,None,1000,3,2150016,351,185.285
F,3,1966002,vowelstep7.wav,None,1000,3,2152016,331,187.285
F,3,1966002,sinestep5.wav,None,1000,3,2154016,331,189.285
F,3,1966002,vowelstep5.wav,None,1000,3,2156017,330,191.285
F,3,1966002,silence.wav,None,1000,3,2158017,340,193.285
F,3,1966002,sinestep7.wav,None,1000,3,2160017,340,195.285
F,3,1966002,vowelstep5.wav,None,1000,3,2162017,340,197.285
F,3,1966002,vowelstep7.wav,None,1000,3,2164017,347,199.285
F,3,1966002,silence.wav,None,1000,3,2166017,320,201.285
F,3,1966002,vowelstep1.wav,None,1000,3,2168016,331,203.285
F,3,1966002,vowelstep7.wav,None,1000,3,2170016,330,205.285
F,3,1966002,vowelstep7.wav,None,1000,3,2172017,340,207.285
F,3,1966002,vowelstep3.wav,None,1000,3,2174017,339,209.285
F,3,1966002,vowelstep3.wav,None,1000,3,2176017,338,211.285
F,3,1966002,silence.wav,None,1000,3,2178017,338,213.285
F,3,1966002,sinestep7.wav,None,1000,3,2180017,319,215.285
F,3,1966002,sinestep1.wav,None,1000,3,2182017,329,217.285
F,3,1966002,silence.wav,None,1000,3,2184017,330,219.285
F,3,1966002,vowelstep1.wav,None,1000,3,2186017,338,221.285
F,3,1966002,sinestep5_catch.wav,1,483,3,2188017,339,223.285
F,3,1966002,sinestep1.wav,None,1000,3,2190018,856,225.285
F,3,1966002,silence.wav,None,1000,3,2192017,338,227.285
F,3,1966002,sinestep7.wav,None,1000,3,2194017,328,229.285
F,3,1966002,sinestep7.wav,None,1000,3,2196017,324,231.285
F,3,1966002,silence.wav,None,1000,3,2198017,326,233.285
F,3,1966002,vowelstep5.wav,None,1000,3,2200017,326,235.285
F,3,1966002,sinestep7.wav,None,1000,3,2202017,337,237.285
F,3,1966002,sinestep5.wav,None,1000,3,2204017,335,239.285
F,3,1966002,sinestep5.wav,None,1000,3,2206017,338,241.285
F,3,1966002,silence.wav,None,1000,3,2208018,318,243.285
F,3,1966002,vowelstep3.wav,None,1000,3,2210018,328,245.285
F,3,1966002,vowelstep3.wav,None,1000,3,2212018,326,247.285
F,3,1966002,silence.wav,None,1000,3,2214018,327,249.285
F,3,1966002,sinestep1.wav,None,1000,3,2216017,337,251.285
F,3,1966002,sinestep1.wav,None,1000,3,2218017,337,253.285
F,3,1966002,vowelstep5.wav,None,1000,3,2220017,337,255.285
F,3,1966002,silence.wav,None,1000,3,2222017,346,257.285
F,3,1966002,sinestep5.wav,None,1000,3,2224017,322,259.285
F,3,1966002,sinestep5.wav,None,1000,3,2226018,324,261.285
F,3,1966002,sinestep5.wav,None,1000,3,2228018,321,263.285
F,3,1966002,sinestep7.wav,None,1000,3,2230018,337,265.285
F,3,1966002,sinestep7_catch.wav,1,200,3,2232018,336,267.285
F,3,1966002,sinestep7_catch.wav,1,585,3,2234018,1136,269.285
F,3,1966002,sinestep1.wav,None,1000,3,2236018,762,271.285
F,3,1966002,vowelstep7.wav,None,1000,3,2238018,326,273.285
F,3,1966002,sinestep3.wav,None,1000,3,2240017,326,275.285
F,3,1966002,sinestep3.wav,None,1000,3,2242018,326,277.285
F,3,1966002,silence.wav,None,1000,3,2244018,330,279.285
F,3,1966002,sinestep5_catch.wav,1,528,3,2246018,335,281.285
F,3,1966002,sinestep5.wav,None,1000,3,2248018,806,283.285
F,3,1966002,silence.wav,None,1000,3,2250018,345,285.285
F,3,1966002,vowelstep5.wav,None,1000,3,2252018,324,287.285
F,3,1966002,silence.wav,None,1000,3,2254018,324,289.285
F,3,1966002,sinestep1.wav,None,1000,3,2256018,325,291.285
F,3,1966002,sinestep3.wav,None,1000,3,2258018,334,293.285
F,3,1966002,vowelstep3.wav,None,1000,3,2260019,333,295.285
F,3,1966002,silence.wav,None,1000,3,2262019,333,297.285
F,3,1966002,sinestep5.wav,None,1000,3,2264018,334,299.285
F,3,1966002,vowelstep5.wav,None,1000,3,2266018,323,301.285
F,3,1966002,vowelstep5.wav,None,1000,3,2268018,324,303.285
F,3,1966002,vowelstep1.wav,None,1000,3,2270018,321,305.285
F,3,1966002,sinestep3.wav,None,1000,3,2272018,324,307.285
F,3,1966002,silence.wav,None,1000,3,2274018,334,309.285
F,3,1966002,sinestep3_catch.wav,1,595,3,2276018,334,311.285
F,3,1966002,vowelstep1.wav,None,1000,3,2278019,738,313.285
F,3,1966002,vowelstep7.wav,None,1000,3,2280019,310,315.285
F,3,1966002,vowelstep7.wav,None,1000,3,2282019,323,317.285
F,3,1966002,vowelstep1.wav,None,1000,3,2284019,322,319.285
B,4,2341960,vowelstep5.wav,None,1000,3,2341969,0,1.285
B,4,2341960,silence.wav,None,1000,3,2343969,328,3.285
B,4,2341960,sinestep7.wav,None,1000,3,2345969,334,5.285
B,4,2341960,vowelstep1_catch.wav,1,190,3,2347970,335,7.285
B,4,2341960,vowelstep7.wav,None,1000,3,2349970,1142,9.285
B,4,2341960,vowelstep3.wav,None,1000,3,2351970,347,11.285
B,4,2341960,vowelstep7.wav,None,1000,3,2353970,326,13.285
B,4,2341960,vowelstep5.wav,None,1000,3,2355970,326,15.285
B,4,2341960,vowelstep7.wav,None,1000,3,2357970,326,17.285
B,4,2341960,vowelstep3.wav,None,1000,3,2359970,337,19.285
B,4,2341960,silence.wav,None,1000,3,2361969,332,21.285
B,4,2341960,silence.wav,None,1000,3,2363969,337,23.285
B,4,2341960,sinestep5.wav,None,1000,3,2365970,346,25.285
B,4,2341960,sinestep1.wav,None,1000,3,2367970,346,27.285
B,4,2341960,vowelstep7.wav,None,1000,3,2369970,326,29.285
B,4,2341960,sinestep5.wav,None,1000,3,2371970,326,31.285
B,4,2341960,vowelstep1.wav,None,1000,3,2373970,336,33.285
B,4,2341960,vowelstep7.wav,None,1000,3,2375970,337,35.285
B,4,2341960,vowelstep3.wav,None,1000,3,2377970,332,37.285
B,4,2341960,sinestep5.wav,None,1000,3,2379970,342,39.285
B,4,2341960,vowelstep1.wav,None,1000,3,2381971,325,41.285
B,4,2341960,sinestep3.wav,None,1000,3,2383971,344,43.285
B,4,2341960,vowelstep5.wav,None,1000,3,2385970,324,45.285
B,4,2341960,vowelstep7.wav,None,1000,3,2387970,334,47.285
B,4,2341960,vowelstep3.wav,None,1000,3,2389970,334,49.285
B,4,2341960,sinestep7.wav,None,1000,3,2391970,333,51.285
B,4,2341960,sinestep3.wav,None,1000,3,2393970,340,53.285
B,4,2341960,sinestep1.wav,None,1000,3,2395970,344,55.285
B,4,2341960,sinestep1.wav,None,1000,3,2397970,343,57.285
B,4,2341960,sinestep5.wav,None,1000,3,2399971,342,59.285
B,4,2341960,vowelstep5.wav,None,1000,3,2401971,334,61.285
B,4,2341960,vowelstep3_catch.wav,1,60,3,2403971,333,63.285
B,4,2341960,vowelstep7.wav,None,1000,3,2405971,1274,65.285
B,4,2341960,sinestep1.wav,None,1000,3,2407971,334,67.285
B,4,2341960,vowelstep5.wav,None,1000,3,2409970,341,69.285
B,4,2341960,vowelstep5_catch.wav,1,275,3,2411970,344,71.285
B,4,2341960,vowelstep7.wav,None,1000,3,2413970,1078,73.285
B,4,2341960,sinestep3.wav,None,1000,3,2415970,354,75.285
B,4,2341960,vowelstep7_catch.wav,1,484,3,2417971,334,77.285
B,4,2341960,sinestep5.wav,None,1000,3,2419971,839,79.285
B,4,2341960,vowelstep5.wav,None,1000,3,2421971,332,81.285
B,4,2341960,silence.wav,None,1000,3,2423971,342,83.285
B,4,2341960,silence.wav,None,1000,3,2425971,342,85.285
B,4,2341960,vowelstep3.wav,None,1000,3,2427971,342,87.285
B,4,2341960,silence.wav,None,1000,3,2429971,323,89.285
B,4,2341960,sinestep1.wav,None,1000,3,2431971,332,91.285
B,4,2341960,sinestep1.wav,None,1000,3,2433970,332,93.285
B,4,2341960,sinestep5.wav,None,1000,3,2435971,332,95.285
B,4,2341960,vowelstep7.wav,None,1000,3,2437971,340,97.285
B,4,2341960,sinestep5.wav,None,1000,3,2439971,342,99.285
B,4,2341960,sinestep5.wav,None,1000,3,2441971,341,101.285
B,4,2341960,silence.wav,None,1000,3,2443971,349,103.285
B,4,2341960,vowelstep1.wav,None,1000,3,2445971,332,105.285
B,4,2341960,silence.wav,None,1000,3,2447971,332,107.285
B,4,2341960,sinestep1.wav,None,1000,3,2449971,331,109.285
B,4,2341960,vowelstep7.wav,None,1000,3,2451972,341,111.285
B,4,2341960,silence.wav,None,1000,3,2453972,340,113.285
B,4,2341960,sinestep1.wav,None,1000,3,2455972,351,115.285
B,4,2341960,vowelstep3.wav,None,1000,3,2457971,320,117.285
B,4,2341960,vowelstep5.wav,None,1000,3,2459971,328,119.285
B,4,2341960,silence.wav,None,1000,3,2461971,331,121.285
B,4,2341960,sinestep3.wav,None,1000,3,2463971,327,123.285
B,4,2341960,sinestep5.wav,None,1000,3,2465971,340,125.285
B,4,2341960,silence.wav,None,1000,3,2467971,335,127.285
B,4,2341960,vowelstep5.wav,None,1000,3,2469972,336,129.285
B,4,2341960,sinestep3.wav,None,1000,3,2471972,349,131.285
B,4,2341960,sinestep5.wav,None,1000,3,2473972,329,133.285
B,4,2341960,sinestep5.wav,None,1000,3,2475972,326,135.285
B,4,2341960,sinestep7.wav,None,1000,3,2477972,330,137.285
B,4,2341960,sinestep7.wav,None,1000,3,2479972,330,139.285
B,4,2341960,vowelstep5.wav,None,1000,3,2481971,339,141.285
B,4,2341960,sinestep1.wav,None,1000,3,2483971,340,143.285
B,4,2341960,vowelstep7.wav,None,1000,3,2485971,350,145.285
B,4,2341960,sinestep7.wav,None,1000,3,2487972,327,147.285
B,4,2341960,vowelstep5.wav,None,1000,3,2489972,326,149.285
B,4,2341960,vowelstep1.wav,None,1000,3,2491972,329,151.285
B,4,2341960,sinestep3.wav,None,1000,3,2493972,334,153.285
B,4,2341960,silence.wav,None,1000,3,2495972,334,155.285
B,4,2341960,silence.wav,None,1000,3,2497972,339,157.285
B,4,2341960,sinestep7_catch.wav,1,329,3,2499972,348,159.285
B,4,2341960,vowelstep5.wav,None,1000,3,2501972,999,161.285
B,4,2341960,sinestep7.wav,None,1000,3,2503972,328,163.285
B,4,2341960,vowelstep5.wav,None,1000,3,2505972,328,165.285
B,4,2341960,vowelstep3.wav,None,1000,3,2507972,337,167.285
B,4,2341960,silence.wav,None,1000,3,2509972,334,169.285
B,4,2341960,sinestep3.wav,None,1000,3,2511972,338,171.285
B,4,2341960,sinestep7_catch.wav,1,171,3,2513972,337,173.285
B,4,2341960,sinestep3.wav,None,1000,3,2515972,1176,175.285
B,4,2341960,sinestep5_catch.wav,1,332,3,2517972,327,177.285
B,4,2341960,vowelstep5.wav,None,1000,3,2519972,996,179.285
B,4,2341960,silence.wav,None,1000,3,2521973,323,181.285
B,4,2341960,sinestep7.wav,None,1000,3,2523973,336,183.285
B,4,2341960,silence.wav,None,1000,3,2525973,336,185.285
B,4,2341960,sinestep3.wav,None,1000,3,2527973,347,187.285
B,4,2341960,silence.wav,None,1000,3,2529972,316,189.285
B,4,2341960,vowelstep7.wav,None,1000,3,2531972,326,191.285
B,4,2341960,vowelstep3.wav,None,1000,3,2533972,326,193.285
B,4,2341960,vowelstep3.wav,None,1000,3,2535972,336,195.285
B,4,2341960,sinestep7.wav,None,1000,3,2537972,336,197.285
B,4,2341960,sinestep7.wav,None,1000,3,2539973,336,199.285
B,4,2341960,sinestep3.wav,None,1000,3,2541973,335,201.285
B,4,2341960,sinestep3_catch.wav,1,92,3,2543973,316,203.285
B,4,2341960,sinestep1.wav,None,1000,3,2545973,1233,205.285
B,4,2341960,sinestep1.wav,None,1000,3,2547973,325,207.285
B,4,2341960,sinestep3.wav,None,1000,3,2549973,325,209.285
B,4,2341960,silence.wav,None,1000,3,2551973,335,211.285
B,4,2341960,silence.wav,None,1000,3,2553972,335,213.285
B,4,2341960,sinestep5_catch.wav,1,771,3,2555972,331,215.285
B,4,2341960,sinestep7.wav,None,1000,3,2557973,574,217.285
B,4,2341960,sinestep7.wav,None,1000,3,2559973,323,219.285
B,4,2341960,vowelstep3.wav,None,1000,3,2561973,323,221.285
B,4,2341960,sinestep1_catch.wav,1,606,3,2563973,334,223.285
B,4,2341960,vowelstep5.wav,None,1000,3,2565973,728,225.285
B,4,2341960,sinestep1.wav,None,1000,3,2567973,334,227.285
B,4,2341960,vowelstep1.wav,None,1000,3,2569973,333,229.285
B,4,2341960,vowelstep1.wav,None,1000,3,2571973,305,231.285
B,4,2341960,sinestep5.wav,None,1000,3,2573973,321,233.285
B,4,2341960,silence.wav,None,1000,3,2575974,324,235.285
B,4,2341960,silence.wav,None,1000,3,2577974,322,237.285
B,4,2341960,vowelstep1.wav,None,1000,3,2579973,334,239.285
B,4,2341960,vowelstep1.wav,None,1000,3,2581973,334,241.285
B,4,2341960,silence.wav,None,1000,3,2583973,334,243.285
B,4,2341960,vowelstep1_catch.wav,1,370,3,2585973,344,245.285
B,4,2341960,sinestep7.wav,None,1000,3,2587973,951,247.285
B,4,2341960,sinestep1.wav,None,1000,3,2589973,319,249.285
B,4,2341960,vowelstep1.wav,None,1000,3,2591974,322,251.285
B,4,2341960,vowelstep3.wav,None,1000,3,2593974,322,253.285
B,4,2341960,sinestep3.wav,None,1000,3,2595974,330,255.285
B,4,2341960,silence.wav,None,1000,3,2597974,332,257.285
B,4,2341960,vowelstep3.wav,None,1000,3,2599974,312,259.285
B,4,2341960,silence.wav,None,1000,3,2601974,322,261.285
B,4,2341960,vowelstep3.wav,None,1000,3,2603973,342,263.285
B,4,2341960,sinestep5.wav,None,1000,3,2605973,351,265.285
B,4,2341960,vowelstep3_catch.wav,1,295,3,2607973,332,267.285
B,4,2341960,sinestep3.wav,None,1000,3,2609974,1034,269.285
B,4,2341960,sinestep1.wav,None,1000,3,2611974,331,271.285
B,4,2341960,vowelstep3.wav,None,1000,3,2613974,332,273.285
B,4,2341960,vowelstep1.wav,None,1000,3,2615974,341,275.285
B,4,2341960,vowelstep5_catch.wav,1,198,3,2617974,320,277.285
B,4,2341960,vowelstep1.wav,None,1000,3,2619974,1123,279.285
B,4,2341960,vowelstep5.wav,None,1000,3,2621974,320,281.285
B,4,2341960,sinestep7.wav,None,1000,3,2623974,331,283.285
B,4,2341960,vowelstep7.wav,None,1000,3,2625974,331,285.285
B,4,2341960,vowelstep1_catch.wav,1,260,3,2627974,337,287.285
B,4,2341960,sinestep1.wav,None,1000,3,2629974,1080,289.285
B,4,2341960,vowelstep1.wav,None,1000,3,2631974,340,291.285
B,4,2341960,sinestep5.wav,None,1000,3,2633974,349,293.285
B,4,2341960,vowelstep7.wav,None,1000,3,2635974,329,295.285
B,4,2341960,sinestep7.wav,None,1000,3,2637974,329,297.285
B,4,2341960,vowelstep7_catch.wav,1,449,3,2639974,328,299.285
B,4,2341960,sinestep3.wav,None,1000,3,2641974,890,301.285
B,4,2341960,vowelstep3.wav,None,1000,3,2643975,335,303.285
B,4,2341960,sinestep5.wav,None,1000,3,2645975,339,305.285
B,4,2341960,vowelstep1.wav,None,1000,3,2647975,348,307.285
B,4,2341960,vowelstep7.wav,None,1000,3,2649975,348,309.285
B,4,2341960,vowelstep1.wav,None,1000,3,2651974,326,311.285
B,4,2341960,sinestep7.wav,None,1000,3,2653974,329,313.285
B,4,2341960,sinestep3.wav,None,1000,3,2655974,329,315.285
B,4,2341960,silence.wav,None,1000,3,2657974,335,317.285
B,4,2341960,vowelstep1.wav,None,1000,3,2659974,340,319.285
G,5,2722335,vowelstep3.wav,None,1000,3,2722342,0,1.285
G,5,2722335,vowelstep3.wav,None,1000,3,2724342,330,3.285
G,5,2722335,vowelstep7.wav,None,1000,3,2726342,329,5.285
G,5,2722335,vowelstep3.wav,None,1000,3,2728342,324,7.285
G,5,2722335,sinestep5.wav,None,1000,3,2730342,341,9.285
G,5,2722335,sinestep1_catch.wav,1,94,3,2732343,341,11.285
G,5,2722335,silence.wav,None,1000,3,2734343,1245,13.285
G,5,2722335,silence.wav,None,1000,3,2736343,318,15.285
G,5,2722335,vowelstep7.wav,None,1000,3,2738343,328,17.285
G,5,2722335,vowelstep1.wav,None,1000,3,2740342,328,19.285
G,5,2722335,silence.wav,None,1000,3,2742342,338,21.285
G,5,2722335,sinestep1.wav,None,1000,3,2744342,334,23.285
G,5,2722335,vowelstep7.wav,None,1000,3,2746342,333,25.285
G,5,2722335,sinestep5.wav,None,1000,3,2748342,337,27.285
G,5,2722335,sinestep5.wav,None,1000,3,2750343,328,29.285
G,5,2722335,sinestep3.wav,None,1000,3,2752343,327,31.285
G,5,2722335,vowelstep3.wav,None,1000,3,2754343,328,33.285
G,5,2722335,silence.wav,None,1000,3,2756343,327,35.285
G,5,2722335,vowelstep1.wav,None,1000,3,2758343,337,37.285
G,5,2722335,sinestep7.wav,None,1000,3,2760343,338,39.285
G,5,2722335,vowelstep5.wav,None,1000,3,2762343,337,41.285
G,5,2722335,vowelstep3.wav,None,1000,3,2764342,347,43.285
G,5,2722335,sinestep1.wav,None,1000,3,2766343,347,45.285
G,5,2722335,sinestep7.wav,None,1000,3,2768343,325,47.285
G,5,2722335,sinestep1.wav,None,1000,3,2770343,357,49.285
G,5,2722335,sinestep5.wav,None,1000,3,2772343,335,51.285
G,5,2722335,vowelstep1.wav,None,1000,3,2774343,335,53.285
G,5,2722335,silence.wav,None,1000,3,2776343,336,55.285
G,5,2722335,sinestep5.wav,None,1000,3,2778343,345,57.285
G,5,2722335,vowelstep1.wav,None,1000,3,2780343,345,59.285
G,5,2722335,vowelstep3.wav,None,1000,3,2782343,346,61.285
G,5,2722335,sinestep3.wav,None,1000,3,2784344,354,63.285
G,5,2722335,sinestep1.wav,None,1000,3,2786344,335,65.285
G,5,2722335,vowelstep5.wav,None,1000,3,2788343,335,67.285
G,5,2722335,vowelstep3.wav,None,1000,3,2790343,334,69.285
G,5,2722335,vowelstep5.wav,None,1000,3,2792343,345,71.285
G,5,2722335,vowelstep7.wav,None,1000,3,2794343,345,73.285
G,5,2722335,vowelstep5.wav,None,1000,3,2796343,343,75.285
G,5,2722335,vowelstep5.wav,None,1000,3,2798343,354,77.285
G,5,2722335,sinestep3.wav,None,1000,3,2800343,325,79.285
G,5,2722335,sinestep3_catch.wav,1,927,3,2802344,336,81.285
G,5,2722335,sinestep5_catch.wav,1,451,3,2804344,404,83.285
G,5,2722335,sinestep7.wav,None,1000,3,2806344,891,85.285
G,5,2722335,sinestep7_catch.wav,1,279,3,2808344,343,87.285
G,5,2722335,sinestep7.wav,None,1000,3,2810344,1064,89.285
G,5,2722335,vowelstep1.wav,None,1000,3,2812343,354,91.285
G,5,2722335,vowelstep7.wav,None,1000,3,2814343,334,93.285
G,5,2722335,vowelstep3.wav,None,1000,3,2816343,333,95.285
G,5,2722335,sinestep3.wav,None,1000,3,2818343,333,97.285
G,5,2722335,sinestep1.wav,None,1000,3,2820344,344,99.285
G,5,2722335,sinestep1.wav,None,1000,3,2822344,343,101.285
G,5,2722335,sinestep5.wav,None,1000,3,2824344,342,103.285
G,5,2722335,vowelstep7.wav,None,1000,3,2826344,353,105.285
G,5,2722335,silence.wav,None,1000,3,2828344,324,107.285
G,5,2722335,sinestep3.wav,None,1000,3,2830344,333,109.285
G,5,2722335,vowelstep1.wav,None,1000,3,2832344,334,111.285
G,5,2722335,sinestep3.wav,None,1000,3,2834344,343,113.285
G,5,2722335,sinestep3.wav,None,1000,3,2836344,342,115.285
G,5,2722335,sinestep7.wav,None,1000,3,2838344,342,117.285
G,5,2722335,silence.wav,None,1000,3,2840344,341,119.285
G,5,2722335,vowelstep5.wav,None,1000,3,2842344,331,121.285
G,5,2722335,sinestep1_catch.wav,1,413,3,2844344,331,123.285
G,5,2722335,silence.wav,None,1000,3,2846344,918,125.285
G,5,2722335,sinestep5.wav,None,1000,3,2848344,331,127.285
G,5,2722335,sinestep7.wav,None,1000,3,2850344,341,129.285
G,5,2722335,sinestep3.wav,None,1000,3,2852344,341,131.285
G,5,2722335,sinestep3.wav,None,1000,3,2854345,342,133.285
G,5,2722335,vowelstep5.wav,None,1000,3,2856345,350,135.285
G,5,2722335,sinestep3.wav,None,1000,3,2858345,330,137.285
G,5,2722335,sinestep3_catch.wav,1,360,3,2860344,332,139.285
G,5,2722335,vowelstep1.wav,None,1000,3,2862344,971,141.285
G,5,2722335,vowelstep1.wav,None,1000,3,2864344,341,143.285
G,5,2722335,sinestep5.wav,None,1000,3,2866344,304,145.285
G,5,2722335,silence.wav,None,1000,3,2868344,342,147.285
G,5,2722335,sinestep3.wav,None,1000,3,2870344,321,149.285
G,5,2722335,silence.wav,None,1000,3,2872345,329,151.285
G,5,2722335,vowelstep3.wav,None,1000,3,2874345,328,153.285
G,5,2722335,sinestep5.wav,None,1000,3,2876345,330,155.285
G,5,2722335,vowelstep7.wav,None,1000,3,2878345,340,157.285
G,5,2722335,silence.wav,None,1000,3,2880345,339,159.285
G,5,2722335,sinestep5_catch.wav,1,528,3,2882345,339,161.285
G,5,2722335,vowelstep5.wav,None,1000,3,2884345,821,163.285
G,5,2722335,silence.wav,None,1000,3,2886344,329,165.285
G,5,2722335,vowelstep7.wav,None,1000,3,2888344,325,167.285
G,5,2722335,vowelstep1.wav,None,1000,3,2890345,329,169.285
G,5,2722335,vowelstep1.wav,None,1000,3,2892345,338,171.285
G,5,2722335,vowelstep1.wav,None,1000,3,2894345,338,173.285
G,5,2722335,sinestep5.wav,None,1000,3,2896345,333,175.285
G,5,2722335,vowelstep3.wav,None,1000,3,2898345,320,177.285
G,5,2722335,sinestep1.wav,None,1000,3,2900345,329,179.285
G,5,2722335,vowelstep1.wav,None,1000,3,2902345,326,181.285
G,5,2722335,sinestep1.wav,None,1000,3,2904345,330,183.285
G,5,2722335,sinestep7.wav,None,1000,3,2906346,337,185.285
G,5,2722335,sinestep7.wav,None,1000,3,2908346,339,187.285
G,5,2722335,sinestep3.wav,None,1000,3,2910345,339,189.285
G,5,2722335,sinestep5.wav,None,1000,3,2912345,343,191.285
G,5,2722335,silence.wav,None,1000,3,2914345,324,193.285
G,5,2722335,sinestep7_catch.wav,1,187,3,2916345,323,195.285
G,5,2722335,vowelstep7_catch.wav,1,452,3,2918345,1139,197.285
G,5,2722335,sinestep7.wav,None,1000,3,2920345,883,199.285
G,5,2722335,silence.wav,None,1000,3,2922345,337,201.285
G,5,2722335,sinestep7.wav,None,1000,3,2924346,338,203.285
G,5,2722335,sinestep3.wav,None,1000,3,2926346,341,205.285
G,5,2722335,vowelstep7.wav,None,1000,3,2928346,326,207.285
G,5,2722335,sinestep1.wav,None,1000,3,2930346,327,209.285
G,5,2722335,silence.wav,None,1000,3,2932346,326,211.285
G,5,2722335,silence.wav,None,1000,3,2934345,327,213.285
G,5,2722335,vowelstep7.wav,None,1000,3,2936345,337,215.285
G,5,2722335,vowelstep5.wav,None,1000,3,2938345,335,217.285
G,5,2722335,sinestep7.wav,None,1000,3,2940345,337,219.285
G,5,2722335,vowelstep5.wav,None,1000,3,2942346,317,221.285
G,5,2722335,vowelstep5_catch.wav,1,185,3,2944346,325,223.285
G,5,2722335,vowelstep7.wav,None,1000,3,2946346,1139,225.285
G,5,2722335,silence.wav,None,1000,3,2948346,336,227.285
G,5,2722335,silence.wav,None,1000,3,2950346,333,229.285
G,5,2722335,sinestep1.wav,None,1000,3,2952346,332,231.285
G,5,2722335,silence.wav,None,1000,3,2954346,335,233.285
G,5,2722335,vowelstep7.wav,None,1000,3,2956346,325,235.285
G,5,2722335,vowelstep5.wav,None,1000,3,2958345,325,237.285
G,5,2722335,vowelstep3.wav,None,1000,3,2960346,320,239.285
G,5,2722335,vowelstep3_catch.wav,1,64,3,2962346,324,241.285
G,5,2722335,sinestep1.wav,None,1000,3,2964346,1270,243.285
G,5,2722335,silence.wav,None,1000,3,2966346,335,245.285
G,5,2722335,sinestep7.wav,None,1000,3,2968346,334,247.285
G,5,2722335,sinestep1.wav,None,1000,3,2970346,312,249.285
G,5,2722335,sinestep3.wav,None,1000,3,2972346,325,251.285
G,5,2722335,vowelstep3.wav,None,1000,3,2974346,325,253.285
G,5,2722335,vowelstep1_catch.wav,1,128,3,2976347,321,255.285
G,5,2722335,sinestep7.wav,None,1000,3,2978347,1205,257.285
G,5,2722335,silence.wav,None,1000,3,2980347,333,259.285
G,5,2722335,sinestep5.wav,None,1000,3,2982346,333,261.285
G,5,2722335,sinestep5.wav,None,1000,3,2984346,323,263.285
G,5,2722335,vowelstep5.wav,None,1000,3,2986346,323,265.285
G,5,2722335,sinestep5.wav,None,1000,3,2988346,318,267.285
G,5,2722335,sinestep7.wav,None,1000,3,2990346,323,269.285
G,5,2722335,silence.wav,None,1000,3,2992346,328,271.285
G,5,2722335,vowelstep7_catch.wav,1,366,3,2994347,329,273.285
G,5,2722335,vowelstep5.wav,None,1000,3,2996347,965,275.285
G,5,2722335,silence.wav,None,1000,3,2998347,342,277.285
G,5,2722335,sinestep3.wav,None,1000,3,3000347,322,279.285
G,5,2722335,vowelstep5.wav,None,1000,3,3002347,322,281.285
G,5,2722335,silence.wav,None,1000,3,3004347,318,283.285
G,5,2722335,vowelstep1.wav,None,1000,3,3006346,333,285.285
G,5,2722335,sinestep1.wav,None,1000,3,3008346,333,287.285
G,5,2722335,vowelstep3.wav,None,1000,3,3010346,343,289.285
G,5,2722335,vowelstep7.wav,None,1000,3,3012347,343,291.285
G,5,2722335,vowelstep7.wav,None,1000,3,3014347,341,293.285
G,5,2722335,sinestep1.wav,None,1000,3,3016347,337,295.285
G,5,2722335,vowelstep5.wav,None,1000,3,3018347,351,297.285
G,5,2722335,silence.wav,None,1000,3,3020347,330,299.285
G,5,2722335,sinestep1.wav,None,1000,3,3022347,330,301.285
G,5,2722335,vowelstep7.wav,None,1000,3,3024347,331,303.285
G,5,2722335,vowelstep5_catch.wav,1,331,3,3026347,341,305.285
G,5,2722335,vowelstep3.wav,None,1000,3,3028347,1010,307.285
G,5,2722335,vowelstep3_catch.wav,1,412,3,3030347,340,309.285
G,5,2722335,sinestep7.wav,None,1000,3,3032347,900,311.285
G,5,2722335,sinestep5.wav,None,1000,3,3034347,320,313.285
G,5,2722335,vowelstep1.wav,None,1000,3,3036347,330,315.285
G,5,2722335,vowelstep3.wav,None,1000,3,3038347,331,317.285
G,5,2722335,vowelstep1.wav,None,1000,3,3040347,340,319.285
A,6,3096768,sinestep5_catch.wav,1,480,3,3096781,0,1.285
A,6,3096768,vowelstep1.wav,None,1000,3,3098782,849,3.285
A,6,3096768,vowelstep3.wav,None,1000,3,3100782,329,5.285
A,6,3096768,sinestep1.wav,None,1000,3,3102782,329,7.285
A,6,3096768,sinestep5_catch.wav,1,77,3,3104782,335,9.285
A,6,3096768,sinestep7.wav,None,1000,3,3106782,1241,11.285
A,6,3096768,sinestep3.wav,None,1000,3,3108782,339,13.285
A,6,3096768,silence.wav,None,1000,3,3110781,320,15.285
A,6,3096768,vowelstep7.wav,None,1000,3,3112781,319,17.285
A,6,3096768,sinestep7.wav,None,1000,3,3114781,330,19.285
A,6,3096768,vowelstep5_catch.wav,1,266,3,3116782,329,21.285
A,6,3096768,sinestep7.wav,None,1000,3,3118782,1070,23.285
A,6,3096768,sinestep3.wav,None,1000,3,3120782,338,25.285
A,6,3096768,silence.wav,None,1000,3,3122782,336,27.285
A,6,3096768,sinestep3.wav,None,1000,3,3124782,350,29.285
A,6,3096768,sinestep5_catch.wav,1,138,3,3126782,328,31.285
A,6,3096768,sinestep1.wav,None,1000,3,3128782,1187,33.285
A,6,3096768,sinestep1.wav,None,1000,3,3130782,329,35.285
A,6,3096768,sinestep5.wav,None,1000,3,3132782,334,37.285
A,6,3096768,vowelstep3.wav,None,1000,3,3134782,334,39.285
A,6,3096768,vowelstep5.wav,None,1000,3,3136782,337,41.285
A,6,3096768,vowelstep3.wav,None,1000,3,3138782,347,43.285
A,6,3096768,vowelstep1.wav,None,1000,3,3140782,317,45.285
A,6,3096768,vowelstep3.wav,None,1000,3,3142782,329,47.285
A,6,3096768,sinestep3.wav,None,1000,3,3144782,327,49.285
A,6,3096768,sinestep7.wav,None,1000,3,3146782,337,51.285
A,6,3096768,sinestep5.wav,None,1000,3,3148782,338,53.285
A,6,3096768,vowelstep7_catch.wav,1,251,3,3150782,337,55.285
A,6,3096768,silence.wav,None,1000,3,3152783,1094,57.285
A,6,3096768,vowelstep3.wav,None,1000,3,3154783,327,59.285
A,6,3096768,vowelstep1.wav,None,1000,3,3156783,327,61.285
A,6,3096768,silence.wav,None,1000,3,3158782,326,63.285
A,6,3096768,sinestep3.wav,None,1000,3,3160782,326,65.285
A,6,3096768,sinestep7.wav,None,1000,3,3162782,337,67.285
A,6,3096768,sinestep5.wav,None,1000,3,3164782,336,69.285
A,6,3096768,sinestep5.wav,None,1000,3,3166782,342,71.285
A,6,3096768,sinestep7.wav,None,1000,3,3168783,346,73.285
A,6,3096768,sinestep1.wav,None,1000,3,3170783,325,75.285
A,6,3096768,sinestep5.wav,None,1000,3,3172783,325,77.285
A,6,3096768,vowelstep1.wav,None,1000,3,3174783,326,79.285
A,6,3096768,sinestep1.wav,None,1000,3,3176783,331,81.285
A,6,3096768,vowelstep5.wav,None,1000,3,3178783,335,83.285
A,6,3096768,sinestep1.wav,None,1000,3,3180783,335,85.285
A,6,3096768,silence.wav,None,1000,3,3182782,315,87.285
A,6,3096768,vowelstep1.wav,None,1000,3,3184782,325,89.285
A,6,3096768,sinestep3.wav,None,1000,3,3186783,326,91.285
A,6,3096768,vowelstep5.wav,None,1000,3,3188783,321,93.285
A,6,3096768,vowelstep5.wav,None,1000,3,3190783,334,95.285
A,6,3096768,vowelstep5.wav,None,1000,3,3192783,334,97.285
A,6,3096768,vowelstep7.wav,None,1000,3,3194783,335,99.285
A,6,3096768,vowelstep3.wav,None,1000,3,3196783,303,101.285
A,6,3096768,sinestep1.wav,None,1000,3,3198783,324,103.285
A,6,3096768,sinestep1.wav,None,1000,3,3200783,322,105.285
A,6,3096768,vowelstep7.wav,None,1000,3,3202783,324,107.285
A,6,3096768,vowelstep1.wav,None,1000,3,3204784,330,109.285
A,6,3096768,vowelstep7.wav,None,1000,3,3206784,330,111.285
A,6,3096768,silence.wav,None,1000,3,3208783,331,113.285
A,6,3096768,sinestep1.wav,None,1000,3,3210783,313,115.285
A,6,3096768,vowelstep1.wav,None,1000,3,3212783,323,117.285
A,6,3096768,silence.wav,None,1000,3,3214783,323,119.285
A,6,3096768,vowelstep1.wav,None,1000,3,3216783,323,121.285
A,6,3096768,vowelstep3.wav,None,1000,3,3218783,333,123.285
A,6,3096768,vowelstep1.wav,None,1000,3,3220783,331,125.285
A,6,3096768,sinestep7.wav,None,1000,3,3222784,333,127.285
A,6,3096768,silence.wav,None,1000,3,3224784,343,129.285
A,6,3096768,vowelstep1.wav,1,282,3,3226784,322,131.285
A,6,3096768,silence.wav,None,1000,3,3228784,1040,133.285
A,6,3096768,sinestep7.wav,None,1000,3,3230784,319,135.285
A,6,3096768,vowelstep5.wav,None,1000,3,3232783,328,137.285
A,6,3096768,sinestep7.wav,None,1000,3,3234783,331,139.285
A,6,3096768,sinestep3.wav,None,1000,3,3236783,331,141.285
A,6,3096768,vowelstep5.wav,None,1000,3,3238784,341,143.285
A,6,3096768,silence.wav,None,1000,3,3240784,321,145.285
A,6,3096768,sinestep3.wav,None,1000,3,3242784,318,147.285
A,6,3096768,sinestep5.wav,None,1000,3,3244784,319,149.285
A,6,3096768,sinestep3.wav,None,1000,3,3246784,331,151.285
A,6,3096768,vowelstep3.wav,None,1000,3,3248784,327,153.285
A,6,3096768,sinestep3.wav,None,1000,3,3250784,331,155.285
A,6,3096768,vowelstep7_catch.wav,1,698,3,3252784,311,157.285
A,6,3096768,vowelstep7.wav,None,1000,3,3254784,612,159.285
A,6,3096768,vowelstep5.wav,None,1000,3,3256784,320,161.285
A,6,3096768,sinestep5.wav,None,1000,3,3258784,320,163.285
A,6,3096768,silence.wav,None,1000,3,3260784,329,165.285
A,6,3096768,sinestep5.wav,None,1000,3,3262784,330,167.285
A,6,3096768,vowelstep5_catch.wav,1,100,3,3264784,329,169.285
A,6,3096768,silence.wav,None,1000,3,3266784,1229,171.285
A,6,3096768,sinestep7.wav,None,1000,3,3268784,321,173.285
A,6,3096768,sinestep5.wav,None,1000,3,3270784,320,175.285
A,6,3096768,sinestep7.wav,None,1000,3,3272784,320,177.285
A,6,3096768,vowelstep3.wav,None,1000,3,3274785,320,179.285
A,6,3096768,sinestep5.wav,None,1000,3,3276785,328,181.285
A,6,3096768,vowelstep1.wav,None,1000,3,3278785,328,183.285
A,6,3096768,vowelstep5.wav,None,1000,3,3280784,329,185.285
A,6,3096768,sinestep5.wav,None,1000,3,3282784,308,187.285
A,6,3096768,vowelstep1.wav,None,1000,3,3284784,315,189.285
A,6,3096768,silence.wav,None,1000,3,3286784,319,191.285
A,6,3096768,sinestep1.wav,None,1000,3,3288784,320,193.285
A,6,3096768,vowelstep5.wav,None,1000,3,3290784,329,195.285
A,6,3096768,sinestep3.wav,None,1000,3,3292785,327,197.285
A,6,3096768,silence.wav,None,1000,3,3294785,324,199.285
A,6,3096768,vowelstep3.wav,None,1000,3,3296785,317,201.285
A,6,3096768,vowelstep3_catch.wav,1,310,3,3298785,317,203.285
A,6,3096768,vowelstep5.wav,None,1000,3,3300785,1006,205.285
A,6,3096768,vowelstep1_catch.wav,1,510,3,3302785,317,207.285
A,6,3096768,silence.wav,None,1000,3,3304784,817,209.285
A,6,3096768,sinestep3.wav,None,1000,3,3306784,323,211.285
A,6,3096768,vowelstep5.wav,None,1000,3,3308785,336,213.285
A,6,3096768,silence.wav,None,1000,3,3310785,334,215.285
A,6,3096768,sinestep5.wav,None,1000,3,3312785,317,217.285
A,6,3096768,vowelstep7.wav,None,1000,3,3314785,318,219.285
A,6,3096768,silence.wav,None,1000,3,3316785,318,221.285
A,6,3096768,vowelstep3.wav,None,1000,3,3318785,327,223.285
A,6,3096768,sinestep7.wav,None,1000,3,3320785,328,225.285
A,6,3096768,silence.wav,None,1000,3,3322785,338,227.285
A,6,3096768,vowelstep3.wav,None,1000,3,3324785,336,229.285
A,6,3096768,vowelstep5.wav,None,1000,3,3326786,317,231.285
A,6,3096768,vowelstep7.wav,None,1000,3,3328785,311,233.285
A,6,3096768,vowelstep3.wav,None,1000,3,3330785,346,235.285
A,6,3096768,vowelstep5.wav,None,1000,3,3332785,326,237.285
A,6,3096768,sinestep1_catch.wav,1,215,3,3334785,325,239.285
A,6,3096768,sinestep3.wav,None,1000,3,3336785,1110,241.285
A,6,3096768,sinestep1.wav,None,1000,3,3338785,335,243.285
A,6,3096768,sinestep3_catch.wav,1,522,3,3340785,336,245.285
A,6,3096768,sinestep7.wav,None,1000,3,3342785,809,247.285
A,6,3096768,vowelstep1.wav,None,1000,3,3344786,315,249.285
A,6,3096768,sinestep3.wav,None,1000,3,3346786,325,251.285
A,6,3096768,vowelstep7.wav,None,1000,3,3348786,324,253.285
A,6,3096768,silence.wav,None,1000,3,3350786,326,255.285
A,6,3096768,sinestep1.wav,None,1000,3,3352785,335,257.285
A,6,3096768,silence.wav,None,1000,3,3354785,335,259.285
A,6,3096768,vowelstep5.wav,None,1000,3,3356785,331,261.285
A,6,3096768,sinestep5_catch.wav,1,147,3,3358785,334,263.285
A,6,3096768,vowelstep7.wav,None,1000,3,3360786,1173,265.285
A,6,3096768,sinestep3.wav,None,1000,3,3362786,324,267.285
A,6,3096768,vowelstep1.wav,None,1000,3,3364786,323,269.285
A,6,3096768,vowelstep3.wav,None,1000,3,3366786,332,271.285
A,6,3096768,sinestep7_catch.wav,1,235,3,3368786,330,273.285
A,6,3096768,silence.wav,None,1000,3,3370786,1098,275.285
A,6,3096768,vowelstep7.wav,None,1000,3,3372786,314,277.285
A,6,3096768,sinestep7.wav,None,1000,3,3374786,323,279.285
A,6,3096768,sinestep1.wav,None,1000,3,3376785,323,281.285
A,6,3096768,vowelstep7.wav,None,1000,3,3378786,322,283.285
A,6,3096768,sinestep5.wav,None,1000,3,3380786,333,285.285
A,6,3096768,sinestep5.wav,None,1000,3,3382786,332,287.285
A,6,3096768,sinestep7_catch.wav,1,327,3,3384786,329,289.285
A,6,3096768,sinestep5.wav,None,1000,3,3386786,1005,291.285
A,6,3096768,silence.wav,None,1000,3,3388786,323,293.285
A,6,3096768,vowelstep3.wav,None,1000,3,3390786,323,295.285
A,6,3096768,silence.wav,None,1000,3,3392786,321,297.285
A,6,3096768,vowelstep1.wav,None,1000,3,3394786,323,299.285
A,6,3096768,sinestep1.wav,None,1000,3,3396787,333,301.285
A,6,3096768,sinestep7.wav,None,1000,3,3398787,330,303.285
A,6,3096768,vowelstep7.wav,None,1000,3,3400786,341,305.285
A,6,3096768,sinestep1_catch.wav,1,346,3,3402786,322,307.285
A,6,3096768,silence.wav,None,1000,3,3404786,970,309.285
A,6,3096768,silence.wav,None,1000,3,3406786,322,311.285
A,6,3096768,vowelstep7.wav,None,1000,3,3408786,320,313.285
A,6,3096768,sinestep1.wav,1,903,3,3410786,331,315.285
A,6,3096768,vowelstep7.wav,None,1000,3,3412786,428,317.285
A,6,3096768,vowelstep7.wav,None,1000,3,3414787,331,319.285
D,7,3472088,sinestep5.wav,None,1000,3,3472104,0,1.285
D,7,3472088,vowelstep1_catch.wav,1,229,3,3474104,327,3.285
D,7,3472088,sinestep7.wav,None,1000,3,3476104,1106,5.285
D,7,3472088,vowelstep3.wav,None,1000,3,3478104,313,7.285
D,7,3472088,vowelstep3_catch.wav,1,363,3,3480104,317,9.285
D,7,3472088,vowelstep5_catch.wav,None,1000,3,3482104,953,11.285
D,7,3472088,sinestep7.wav,None,1000,3,3484105,326,13.285
D,7,3472088,silence.wav,None,1000,3,3486105,323,15.285
D,7,3472088,vowelstep7_catch.wav,None,1000,3,3488105,325,17.285
D,7,3472088,vowelstep7.wav,None,1000,3,3490104,336,19.285
D,7,3472088,vowelstep3.wav,None,1000,3,3492104,306,21.285
D,7,3472088,vowelstep7_catch.wav,1,171,3,3494104,312,23.285
D,7,3472088,vowelstep5.wav,None,1000,3,3496104,1145,25.285
D,7,3472088,sinestep7.wav,None,1000,3,3498104,326,27.285
D,7,3472088,silence.wav,None,1000,3,3500104,322,29.285
D,7,3472088,vowelstep1.wav,None,1000,3,3502105,326,31.285
D,7,3472088,vowelstep1.wav,None,1000,3,3504105,322,33.285
D,7,3472088,vowelstep7.wav,1,347,3,3506105,330,35.285
D,7,3472088,vowelstep3.wav,None,1000,3,3508105,987,37.285
D,7,3472088,sinestep3.wav,None,1000,3,3510105,345,39.285
D,7,3472088,sinestep1.wav,None,1000,3,3512105,325,41.285
D,7,3472088,vowelstep1.wav,None,1000,3,3514104,325,43.285
D,7,3472088,vowelstep1.wav,None,1000,3,3516104,325,45.285
D,7,3472088,sinestep7.wav,None,1000,3,3518104,334,47.285
D,7,3472088,sinestep3.wav,None,1000,3,3520105,334,49.285
D,7,3472088,vowelstep5_catch.wav,1,236,3,3522105,334,51.285
D,7,3472088,sinestep7.wav,None,1000,3,3524105,1098,53.285
D,7,3472088,vowelstep5.wav,None,1000,3,3526105,320,55.285
D,7,3472088,sinestep3.wav,None,1000,3,3528105,325,57.285
D,7,3472088,sinestep7.wav,None,1000,3,3530105,324,59.285
D,7,3472088,vowelstep3.wav,None,1000,3,3532105,324,61.285
D,7,3472088,vowelstep3.wav,None,1000,3,3534105,334,63.285
D,7,3472088,vowelstep3_catch.wav,1,219,3,3536106,333,65.285
D,7,3472088,silence.wav,None,1000,3,3538106,1113,67.285
D,7,3472088,vowelstep7.wav,None,1000,3,3540105,343,69.285
D,7,3472088,silence.wav,None,1000,3,3542105,323,71.285
D,7,3472088,sinestep1.wav,None,1000,3,3544105,322,73.285
D,7,3472088,vowelstep5.wav,None,1000,3,3546105,323,75.285
D,7,3472088,vowelstep1.wav,None,1000,3,3548105,333,77.285
D,7,3472088,sinestep7.wav,None,1000,3,3550105,333,79.285
D,7,3472088,vowelstep1.wav,None,1000,3,3552105,333,81.285
D,7,3472088,sinestep7.wav,None,1000,3,3554106,312,83.285
D,7,3472088,vowelstep7.wav,None,1000,3,3556106,321,85.285
D,7,3472088,vowelstep5.wav,None,1000,3,3558106,321,87.285
D,7,3472088,vowelstep1.wav,None,1000,3,3560106,321,89.285
D,7,3472088,sinestep5.wav,None,1000,3,3562105,332,91.285
D,7,3472088,sinestep5.wav,None,1000,3,3564105,332,93.285
D,7,3472088,vowelstep3.wav,None,1000,3,3566105,333,95.285
D,7,3472088,silence.wav,None,1000,3,3568105,342,97.285
D,7,3472088,sinestep1.wav,None,1000,3,3570105,319,99.285
D,7,3472088,sinestep1.wav,None,1000,3,3572106,323,101.285
D,7,3472088,sinestep3.wav,None,1000,3,3574106,317,103.285
D,7,3472088,vowelstep1.wav,None,1000,3,3576106,330,105.285
D,7,3472088,sinestep7.wav,None,1000,3,3578106,330,107.285
D,7,3472088,vowelstep3.wav,None,1000,3,3580106,329,109.285
D,7,3472088,silence.wav,None,1000,3,3582106,311,111.285
D,7,3472088,vowelstep5.wav,None,1000,3,3584106,320,113.285
D,7,3472088,vowelstep1.wav,None,1000,3,3586105,320,115.285
D,7,3472088,vowelstep1_catch.wav,1,262,3,3588106,320,117.285
D,7,3472088,vowelstep7.wav,None,1000,3,3590106,1062,119.285
D,7,3472088,sinestep5.wav,None,1000,3,3592106,327,121.285
D,7,3472088,vowelstep7.wav,None,1000,3,3594106,330,123.285
D,7,3472088,sinestep1.wav,None,1000,3,3596106,329,125.285
D,7,3472088,sinestep1.wav,None,1000,3,3598106,320,127.285
D,7,3472088,vowelstep3.wav,None,1000,3,3600106,319,129.285
D,7,3472088,sinestep1.wav,None,1000,3,3602106,319,131.285
D,7,3472088,silence.wav,None,1000,3,3604106,320,133.285
D,7,3472088,sinestep3.wav,None,1000,3,3606107,328,135.285
D,7,3472088,silence.wav,None,1000,3,3608107,328,137.285
D,7,3472088,vowelstep3.wav,None,1000,3,3610106,339,139.285
D,7,3472088,vowelstep5.wav,None,1000,3,3612106,318,141.285
D,7,3472088,silence.wav,None,1000,3,3614106,319,143.285
D,7,3472088,sinestep5.wav,None,1000,3,3616106,318,145.285
D,7,3472088,sinestep5.wav,None,1000,3,3618106,329,147.285
D,7,3472088,sinestep1.wav,None,1000,3,3620106,328,149.285
D,7,3472088,vowelstep5.wav,None,1000,3,3622106,329,151.285
D,7,3472088,vowelstep5.wav,None,1000,3,3624107,335,153.285
D,7,3472088,sinestep1_catch.wav,1,274,3,3626107,308,155.285
D,7,3472088,sinestep5.wav,None,1000,3,3628107,1043,157.285
D,7,3472088,vowelstep3.wav,None,1000,3,3630107,316,159.285
D,7,3472088,vowelstep7.wav,None,1000,3,3632107,318,161.285
D,7,3472088,vowelstep3.wav,None,1000,3,3634107,329,163.285
D,7,3472088,sinestep3.wav,None,1000,3,3636106,328,165.285
D,7,3472088,sinestep1.wav,None,1000,3,3638106,327,167.285
D,7,3472088,silence.wav,None,1000,3,3640106,337,169.285
D,7,3472088,sinestep1.wav,None,1000,3,3642091,317,171.285
D,7,3472088,vowelstep1.wav,None,1000,3,3644107,337,173.285
D,7,3472088,vowelstep3.wav,None,1000,3,3646107,317,175.285
D,7,3472088,silence.wav,None,1000,3,3648107,326,177.285
D,7,3472088,sinestep7.wav,None,1000,3,3650107,326,179.285
D,7,3472088,silence.wav,None,1000,3,3652107,336,181.285
D,7,3472088,vowelstep7.wav,None,1000,3,3654107,307,183.285
D,7,3472088,sinestep3.wav,None,1000,3,3656107,316,185.285
D,7,3472088,vowelstep1.wav,None,1000,3,3658091,317,187.285
D,7,3472088,sinestep7.wav,None,1000,3,3660091,346,189.285
D,7,3472088,silence.wav,None,1000,3,3662107,345,191.285
D,7,3472088,sinestep1.wav,None,1000,3,3664107,326,193.285
D,7,3472088,sinestep3.wav,None,1000,3,3666107,333,195.285
D,7,3472088,sinestep5.wav,None,1000,3,3668107,336,197.285
D,7,3472088,vowelstep3.wav,None,1000,3,3670107,313,199.285
D,7,3472088,sinestep5.wav,None,1000,3,3672107,315,201.285
D,7,3472088,sinestep5.wav,None,1000,3,3674107,316,203.285
D,7,3472088,sinestep3.wav,None,1000,3,3676091,325,205.285
D,7,3472088,sinestep3.wav,None,1000,3,3678091,345,207.285
D,7,3472088,sinestep5.wav,None,1000,3,3680108,353,209.285
D,7,3472088,sinestep3_catch.wav,1,194,3,3682108,334,211.285
D,7,3472088,vowelstep7.wav,None,1000,3,3684107,1116,213.285
D,7,3472088,sinestep1.wav,None,1000,3,3686107,314,215.285
D,7,3472088,sinestep7.wav,None,1000,3,3688107,310,217.285
D,7,3472088,vowelstep1.wav,None,1000,3,3690091,324,219.285
D,7,3472088,sinestep5.wav,None,1000,3,3692107,343,221.285
D,7,3472088,silence.wav,None,1000,3,3694091,324,223.285
D,7,3472088,sinestep5_catch.wav,1,390,3,3696091,329,225.285
D,7,3472088,sinestep5.wav,None,1000,3,3698108,943,227.285
D,7,3472088,silence.wav,None,1000,3,3700108,313,229.285
D,7,3472088,vowelstep7.wav,None,1000,3,3702108,313,231.285
D,7,3472088,sinestep3.wav,None,1000,3,3704108,323,233.285
D,7,3472088,vowelstep5.wav,None,1000,3,3706091,322,235.285
D,7,3472088,vowelstep7.wav,None,1000,3,3708091,350,237.285
D,7,3472088,vowelstep5.wav,None,1000,3,3710107,324,239.285
D,7,3472088,silence.wav,None,1000,3,3712092,310,241.285
D,7,3472088,silence.wav,None,1000,3,3714092,328,243.285
D,7,3472088,silence.wav,None,1000,3,3716091,342,245.285
D,7,3472088,sinestep7.wav,None,1000,3,3718108,341,247.285
D,7,3472088,sinestep5.wav,None,1000,3,3720108,322,249.285
D,7,3472088,sinestep7_catch.wav,1,192,3,3722091,322,251.285
D,7,3472088,vowelstep1.wav,None,1000,3,3724091,1139,253.285
D,7,3472088,vowelstep1.wav,None,1000,3,3726091,332,255.285
D,7,3472088,vowelstep3.wav,None,1000,3,3728092,332,257.285
D,7,3472088,silence.wav,None,1000,3,3730092,342,259.285
D,7,3472088,sinestep5.wav,None,1000,3,3732092,341,261.285
D,7,3472088,vowelstep7.wav,None,1000,3,3734092,342,263.285
D,7,3472088,vowelstep3.wav,None,1000,3,3736108,351,265.285
D,7,3472088,vowelstep7.wav,None,1000,3,3738092,322,267.285
D,7,3472088,vowelstep5.wav,None,1000,3,3740091,331,269.285
D,7,3472088,sinestep1.wav,None,1000,3,3742091,331,271.285
D,7,3472088,sinestep7.wav,None,1000,3,3744091,341,273.285
D,7,3472088,sinestep3.wav,None,1000,3,3746092,341,275.285
D,7,3472088,silence.wav,None,1000,3,3748092,336,277.285
D,7,3472088,sinestep7.wav,None,1000,3,3750092,341,279.285
D,7,3472088,vowelstep5.wav,None,1000,3,3752092,330,281.285
D,7,3472088,sinestep1.wav,None,1000,3,3754092,329,283.285
D,7,3472088,vowelstep1.wav,None,1000,3,3756092,330,285.285
D,7,3472088,sinestep1.wav,None,1000,3,3758092,340,287.285
D,7,3472088,vowelstep5.wav,None,1000,3,3760092,338,289.285
D,7,3472088,silence.wav,None,1000,3,3762092,340,291.285
D,7,3472088,sinestep3.wav,None,1000,3,3764092,346,293.285
D,7,3472088,vowelstep5.wav,None,1000,3,3766092,327,295.285
D,7,3472088,silence.wav,None,1000,3,3768092,326,297.285
D,7,3472088,sinestep3.wav,None,1000,3,3770092,330,299.285
D,7,3472088,vowelstep7.wav,None,1000,3,3772092,330,301.285
D,7,3472088,sinestep7_catch.wav,1,288,3,3774092,332,303.285
D,7,3472088,sinestep5_catch.wav,1,561,3,3776092,1051,305.285
D,7,3472088,sinestep3.wav,None,1000,3,3778092,778,307.285
D,7,3472088,vowelstep5.wav,None,1000,3,3780092,314,309.285
D,7,3472088,silence.wav,None,1000,3,3782093,329,311.285
D,7,3472088,sinestep3_catch.wav,1,231,3,3784093,328,313.285
D,7,3472088,silence.wav,None,1000,3,3786093,1097,315.285
D,7,3472088,vowelstep7.wav,None,1000,3,3788092,338,317.285
D,7,3472088,silence.wav,None,1000,3,3790092,338,319.285
I,8,3848573,vowelstep7.wav,None,1000,3,3848576,0,1.285
I,8,3848573,sinestep1_catch.wav,1,233,3,3850577,339,3.285
I,8,3848573,sinestep3.wav,None,1000,3,3852577,1105,5.285
I,8,3848573,silence.wav,None,1000,3,3854577,339,7.285
I,8,3848573,vowelstep7.wav,None,1000,3,3856577,329,9.285
I,8,3848573,sinestep3_catch.wav,None,1000,3,3858577,329,11.285
I,8,3848573,vowelstep3.wav,None,1000,3,3860577,329,13.285
I,8,3848573,vowelstep3.wav,None,1000,3,3862577,329,15.285
I,8,3848573,silence.wav,None,1000,3,3864577,339,17.285
I,8,3848573,vowelstep1.wav,None,1000,3,3866577,339,19.285
I,8,3848573,vowelstep5.wav,None,1000,3,3868577,334,21.285
I,8,3848573,vowelstep7.wav,None,1000,3,3870577,318,23.285
I,8,3848573,sinestep1.wav,None,1000,3,3872577,328,25.285
I,8,3848573,vowelstep1.wav,None,1000,3,3874577,329,27.285
I,8,3848573,sinestep5_catch.wav,1,231,3,3876577,328,29.285
I,8,3848573,sinestep5.wav,None,1000,3,3878577,1105,31.285
I,8,3848573,vowelstep1.wav,None,1000,3,3880577,339,33.285
I,8,3848573,sinestep7.wav,None,1000,3,3882577,338,35.285
I,8,3848573,vowelstep3.wav,None,1000,3,3884577,319,37.285
I,8,3848573,vowelstep1.wav,None,1000,3,3886578,324,39.285
I,8,3848573,vowelstep1.wav,None,1000,3,3888578,327,41.285
I,8,3848573,sinestep3.wav,None,1000,3,3890578,327,43.285
I,8,3848573,sinestep5.wav,None,1000,3,3892578,336,45.285
I,8,3848573,sinestep5.wav,None,1000,3,3894577,336,47.285
I,8,3848573,vowelstep3.wav,None,1000,3,3896577,337,49.285
I,8,3848573,silence.wav,None,1000,3,3898577,347,51.285
I,8,3848573,sinestep7_catch.wav,1,392,3,3900577,347,53.285
I,8,3848573,silence.wav,None,1000,3,3902577,950,55.285
I,8,3848573,sinestep1.wav,None,1000,3,3904578,355,57.285
I,8,3848573,vowelstep1.wav,None,1000,3,3906578,336,59.285
I,8,3848573,sinestep1.wav,None,1000,3,3908578,336,61.285
I,8,3848573,sinestep1.wav,None,1000,3,3910578,336,63.285
I,8,3848573,vowelstep7.wav,None,1000,3,3912578,346,65.285
I,8,3848573,sinestep5.wav,None,1000,3,3914578,346,67.285
I,8,3848573,sinestep5_catch.wav,1,154,3,3916577,327,69.285
I,8,3848573,vowelstep7.wav,None,1000,3,3918577,1201,71.285
I,8,3848573,vowelstep5.wav,None,1000,3,3920578,336,73.285
I,8,3848573,sinestep3.wav,None,1000,3,3922578,335,75.285
I,8,3848573,vowelstep1.wav,None,1000,3,3924578,335,77.285
I,8,3848573,sinestep3.wav,None,1000,3,3926578,345,79.285
I,8,3848573,sinestep5.wav,None,1000,3,3928578,345,81.285
I,8,3848573,sinestep5.wav,None,1000,3,3930578,345,83.285
I,8,3848573,vowelstep5.wav,None,1000,3,3932578,354,85.285
I,8,3848573,vowelstep7.wav,None,1000,3,3934578,334,87.285
I,8,3848573,sinestep3.wav,None,1000,3,3936578,335,89.285
I,8,3848573,vowelstep3.wav,None,1000,3,3938579,335,91.285
I,8,3848573,sinestep3.wav,None,1000,3,3940578,343,93.285
I,8,3848573,vowelstep5.wav,None,1000,3,3942578,343,95.285
I,8,3848573,sinestep7.wav,None,1000,3,3944578,345,97.285
I,8,3848573,sinestep3_catch.wav,1,105,3,3946578,344,99.285
I,8,3848573,sinestep1_catch.wav,1,111,3,3948578,1228,101.285
I,8,3848573,vowelstep3.wav,None,1000,3,3950578,1222,103.285
I,8,3848573,vowelstep3.wav,None,1000,3,3952578,333,105.285
I,8,3848573,vowelstep5.wav,None,1000,3,3954578,334,107.285
I,8,3848573,sinestep5.wav,None,1000,3,3956579,344,109.285
I,8,3848573,vowelstep5.wav,None,1000,3,3958579,342,111.285
I,8,3848573,vowelstep5.wav,None,1000,3,3960579,352,113.285
I,8,3848573,vowelstep1.wav,None,1000,3,3962579,323,115.285
I,8,3848573,vowelstep1_catch.wav,1,237,3,3964579,330,117.285
I,8,3848573,sinestep7.wav,None,1000,3,3966578,1095,119.285
I,8,3848573,vowelstep3.wav,None,1000,3,3968578,342,121.285
I,8,3848573,sinestep7.wav,None,1000,3,3970578,338,123.285
I,8,3848573,sinestep7.wav,None,1000,3,3972578,343,125.285
I,8,3848573,vowelstep7.wav,None,1000,3,3974579,341,127.285
I,8,3848573,vowelstep3.wav,None,1000,3,3976579,331,129.285
I,8,3848573,sinestep5.wav,None,1000,3,3978579,333,131.285
I,8,3848573,sinestep5.wav,None,1000,3,3980579,332,133.285
I,8,3848573,vowelstep3.wav,None,1000,3,3982579,331,135.285
I,8,3848573,sinestep5.wav,None,1000,3,3984579,342,137.285
I,8,3848573,sinestep1.wav,None,1000,3,3986579,342,139.285
I,8,3848573,vowelstep7.wav,None,1000,3,3988579,351,141.285
I,8,3848573,silence.wav,None,1000,3,3990579,320,143.285
I,8,3848573,vowelstep7.wav,None,1000,3,3992579,330,145.285
I,8,3848573,silence.wav,None,1000,3,3994579,326,147.285
I,8,3848573,sinestep1.wav,None,1000,3,3996579,328,149.285
I,8,3848573,vowelstep1.wav,None,1000,3,3998579,340,151.285
I,8,3848573,vowelstep3.wav,None,1000,3,4000579,340,153.285
I,8,3848573,silence.wav,None,1000,3,4002579,341,155.285
I,8,3848573,silence.wav,None,1000,3,4004579,321,157.285
I,8,3848573,vowelstep1.wav,None,1000,3,4006579,325,159.285
I,8,3848573,sinestep1.wav,None,1000,3,4008580,330,161.285
I,8,3848573,vowelstep3_catch.wav,1,361,3,4010580,330,163.285
I,8,3848573,sinestep1.wav,None,1000,3,4012580,979,165.285
I,8,3848573,vowelstep5.wav,None,1000,3,4014579,340,167.285
I,8,3848573,vowelstep5_catch.wav,1,773,3,4016579,335,169.285
I,8,3848573,sinestep1.wav,None,1000,3,4018579,555,171.285
I,8,3848573,silence.wav,None,1000,3,4020579,330,173.285
I,8,3848573,vowelstep5.wav,None,1000,3,4022579,330,175.285
I,8,3848573,sinestep3.wav,None,1000,3,4024579,329,177.285
I,8,3848573,sinestep3.wav,None,1000,3,4026580,330,179.285
I,8,3848573,silence.wav,None,1000,3,4028580,338,181.285
I,8,3848573,silence.wav,None,1000,3,4030580,338,183.285
I,8,3848573,vowelstep3.wav,None,1000,3,4032580,310,185.285
I,8,3848573,vowelstep7.wav,None,1000,3,4034580,329,187.285
I,8,3848573,vowelstep7.wav,None,1000,3,4036580,325,189.285
I,8,3848573,silence.wav,None,1000,3,4038579,328,191.285
I,8,3848573,sinestep3.wav,None,1000,3,4040579,335,193.285
I,8,3848573,sinestep3.wav,None,1000,3,4042579,335,195.285
I,8,3848573,vowelstep5.wav,None,1000,3,4044580,337,197.285
I,8,3848573,vowelstep1.wav,None,1000,3,4046580,347,199.285
I,8,3848573,vowelstep1.wav,None,1000,3,4048580,327,201.285
I,8,3848573,sinestep5.wav,None,1000,3,4050580,327,203.285
I,8,3848573,silence.wav,None,1000,3,4052580,327,205.285
I,8,3848573,sinestep5.wav,None,1000,3,4054580,329,207.285
I,8,3848573,sinestep7.wav,None,1000,3,4056580,337,209.285
I,8,3848573,sinestep1.wav,None,1000,3,4058580,334,211.285
I,8,3848573,sinestep5.wav,None,1000,3,4060581,346,213.285
I,8,3848573,vowelstep5.wav,None,1000,3,4062580,316,215.285
I,8,3848573,sinestep7.wav,None,1000,3,4064580,326,217.285
I,8,3848573,sinestep5.wav,None,1000,3,4066580,326,219.285
I,8,3848573,sinestep3.wav,None,1000,3,4068580,336,221.285
I,8,3848573,silence.wav,None,1000,3,4070580,336,223.285
I,8,3848573,vowelstep7_catch.wav,1,444,3,4072580,336,225.285
I,8,3848573,sinestep7.wav,None,1000,3,4074580,901,227.285
I,8,3848573,sinestep7.wav,None,1000,3,4076580,326,229.285
I,8,3848573,sinestep3.wav,None,1000,3,4078581,326,231.285
I,8,3848573,vowelstep3.wav,None,1000,3,4080581,325,233.285
I,8,3848573,silence.wav,None,1000,3,4082581,335,235.285
I,8,3848573,sinestep3.wav,None,1000,3,4084581,335,237.285
I,8,3848573,sinestep5.wav,None,1000,3,4086580,335,239.285
I,8,3848573,silence.wav,None,1000,3,4088580,335,241.285
I,8,3848573,vowelstep3.wav,None,1000,3,4090580,345,243.285
I,8,3848573,sinestep1.wav,None,1000,3,4092580,325,245.285
I,8,3848573,sinestep1.wav,None,1000,3,4094580,326,247.285
I,8,3848573,sinestep7.wav,None,1000,3,4096581,335,249.285
I,8,3848573,vowelstep7.wav,None,1000,3,4098581,328,251.285
I,8,3848573,vowelstep5.wav,None,1000,3,4100581,330,253.285
I,8,3848573,silence.wav,None,1000,3,4102581,342,255.285
I,8,3848573,sinestep3.wav,None,1000,3,4104581,314,257.285
I,8,3848573,vowelstep1.wav,None,1000,3,4106581,324,259.285
I,8,3848573,vowelstep1.wav,None,1000,3,4108581,324,261.285
I,8,3848573,silence.wav,None,1000,3,4110580,332,263.285
I,8,3848573,vowelstep3.wav,None,1000,3,4112581,334,265.285
I,8,3848573,silence.wav,None,1000,3,4114581,333,267.285
I,8,3848573,silence.wav,None,1000,3,4116581,331,269.285
I,8,3848573,sinestep7.wav,None,1000,3,4118581,313,271.285
I,8,3848573,sinestep7.wav,None,1000,3,4120581,324,273.285
I,8,3848573,vowelstep5.wav,None,1000,3,4122581,322,275.285
I,8,3848573,silence.wav,None,1000,3,4124581,322,277.285
I,8,3848573,silence.wav,None,1000,3,4126581,333,279.285
I,8,3848573,sinestep1.wav,None,1000,3,4128581,334,281.285
I,8,3848573,silence.wav,None,1000,3,4130582,333,283.285
I,8,3848573,vowelstep7.wav,None,1000,3,4132582,308,285.285
I,8,3848573,vowelstep5_catch.wav,1,264,3,4134581,322,287.285
I,8,3848573,sinestep7.wav,None,1000,3,4136581,1076,289.285
I,8,3848573,sinestep1.wav,None,1000,3,4138581,331,291.285
I,8,3848573,vowelstep3_catch.wav,1,459,3,4140581,332,293.285
I,8,3848573,sinestep1.wav,None,1000,3,4142581,868,295.285
I,8,3848573,vowelstep7.wav,None,1000,3,4144581,332,297.285
I,8,3848573,sinestep3.wav,None,1000,3,4146581,337,299.285
I,8,3848573,vowelstep5.wav,None,1000,3,4148582,341,301.285
I,8,3848573,vowelstep1_catch.wav,1,279,3,4150582,337,303.285
I,8,3848573,vowelstep7.wav,None,1000,3,4152582,1068,305.285
I,8,3848573,vowelstep5.wav,None,1000,3,4154582,331,307.285
I,8,3848573,sinestep1_catch.wav,1,436,3,4156582,329,309.285
I,8,3848573,silence.wav,None,1000,3,4158581,893,311.285
I,8,3848573,sinestep7.wav,None,1000,3,4160581,340,313.285
I,8,3848573,silence.wav,None,1000,3,4162581,336,315.285
I,8,3848573,vowelstep1.wav,None,1000,3,4164581,341,317.285
I,8,3848573,sinestep7.wav,None,1000,3,4166582,350,319.285
J,9,4223380,sinestep5_catch.wav,1,316,3,4223399,0,1.285
J,9,4223380,sinestep5.wav,None,1000,3,4225399,996,3.285
J,9,4223380,sinestep3.wav,None,1000,3,4227399,313,5.285
J,9,4223380,sinestep1.wav,None,1000,3,4229399,323,7.285
J,9,4223380,sinestep7.wav,None,1000,3,4231399,325,9.285
J,9,4223380,vowelstep3.wav,None,1000,3,4233399,324,11.285
J,9,4223380,sinestep1.wav,None,1000,3,4235383,298,13.285
J,9,4223380,vowelstep5.wav,None,1000,3,4237383,333,15.285
J,9,4223380,vowelstep3.wav,None,1000,3,4239383,332,17.285
J,9,4223380,vowelstep1.wav,None,1000,3,4241400,343,19.285
J,9,4223380,vowelstep1.wav,None,1000,3,4243400,322,21.285
J,9,4223380,sinestep3.wav,None,1000,3,4245400,318,23.285
J,9,4223380,silence.wav,None,1000,3,4247399,322,25.285
J,9,4223380,vowelstep7.wav,None,1000,3,4249383,312,27.285
J,9,4223380,sinestep3.wav,None,1000,3,4251383,333,29.285
J,9,4223380,sinestep7.wav,None,1000,3,4253384,340,31.285
J,9,4223380,silence.wav,None,1000,3,4255383,341,33.285
J,9,4223380,vowelstep5.wav,None,1000,3,4257383,341,35.285
J,9,4223380,sinestep1.wav,None,1000,3,4259400,341,37.285
J,9,4223380,sinestep1_catch.wav,1,169,3,4261400,328,39.285
J,9,4223380,sinestep7.wav,None,1000,3,4263400,1133,41.285
J,9,4223380,vowelstep7.wav,None,1000,3,4265383,312,43.285
J,9,4223380,sinestep3_catch.wav,1,241,3,4267383,331,45.285
J,9,4223380,vowelstep3.wav,None,1000,3,4269383,1100,47.285
J,9,4223380,vowelstep7.wav,None,1000,3,4271384,341,49.285
J,9,4223380,sinestep1.wav,None,1000,3,4273384,340,51.285
J,9,4223380,vowelstep3.wav,None,1000,3,4275384,320,53.285
J,9,4223380,vowelstep1.wav,None,1000,3,4277384,330,55.285
J,9,4223380,sinestep5.wav,None,1000,3,4279400,330,57.285
J,9,4223380,sinestep5_catch.wav,1,180,3,4281383,310,59.285
J,9,4223380,sinestep5.wav,None,1000,3,4283383,1154,61.285
J,9,4223380,vowelstep7.wav,None,1000,3,4285383,340,63.285
J,9,4223380,sinestep7.wav,None,1000,3,4287383,340,65.285
J,9,4223380,vowelstep1.wav,None,1000,3,4289384,319,67.285
J,9,4223380,sinestep7_catch.wav,1,162,3,4291384,329,69.285
J,9,4223380,silence.wav,None,1000,3,4293384,1165,71.285
J,9,4223380,vowelstep5.wav,None,1000,3,4295384,329,73.285
J,9,4223380,sinestep5.wav,None,1000,3,4297384,340,75.285
J,9,4223380,sinestep5.wav,None,1000,3,4299384,340,77.285
J,9,4223380,vowelstep3.wav,None,1000,3,4301384,339,79.285
J,9,4223380,vowelstep5.wav,None,1000,3,4303383,350,81.285
J,9,4223380,sinestep3.wav,None,1000,3,4305384,328,83.285
J,9,4223380,silence.wav,None,1000,3,4307384,328,85.285
J,9,4223380,vowelstep3.wav,None,1000,3,4309384,329,87.285
J,9,4223380,vowelstep7.wav,None,1000,3,4311384,338,89.285
J,9,4223380,silence.wav,None,1000,3,4313384,339,91.285
J,9,4223380,sinestep3.wav,None,1000,3,4315384,338,93.285
J,9,4223380,silence.wav,None,1000,3,4317384,319,95.285
J,9,4223380,sinestep1.wav,None,1000,3,4319384,328,97.285
J,9,4223380,sinestep5_catch.wav,1,441,3,4321384,328,99.285
J,9,4223380,sinestep7.wav,None,1000,3,4323385,886,101.285
J,9,4223380,sinestep5.wav,None,1000,3,4325385,337,103.285
J,9,4223380,sinestep5.wav,None,1000,3,4327384,334,105.285
J,9,4223380,sinestep3.wav,None,1000,3,4329384,336,107.285
J,9,4223380,sinestep3_catch.wav,1,198,3,4331384,338,109.285
J,9,4223380,sinestep3.wav,None,1000,3,4333384,1129,111.285
J,9,4223380,silence.wav,None,1000,3,4335384,328,113.285
J,9,4223380,sinestep1.wav,None,1000,3,4337384,328,115.285
J,9,4223380,silence.wav,None,1000,3,4339384,328,117.285
J,9,4223380,vowelstep3.wav,None,1000,3,4341385,337,119.285
J,9,4223380,vowelstep5.wav,None,1000,3,4343385,336,121.285
J,9,4223380,vowelstep7.wav,None,1000,3,4345385,342,123.285
J,9,4223380,silence.wav,None,1000,3,4347385,326,125.285
J,9,4223380,sinestep1.wav,None,1000,3,4349385,322,127.285
J,9,4223380,sinestep3.wav,None,1000,3,4351384,324,129.285
J,9,4223380,sinestep7.wav,None,1000,3,4353384,335,131.285
J,9,4223380,silence.wav,None,1000,3,4355384,336,133.285
J,9,4223380,sinestep1.wav,None,1000,3,4357385,335,135.285
J,9,4223380,vowelstep7.wav,None,1000,3,4359385,331,137.285
J,9,4223380,sinestep5.wav,None,1000,3,4361385,324,139.285
J,9,4223380,vowelstep1.wav,None,1000,3,4363385,324,141.285
J,9,4223380,vowelstep7.wav,None,1000,3,4365385,323,143.285
J,9,4223380,vowelstep3.wav,None,1000,3,4367385,325,145.285
J,9,4223380,vowelstep3.wav,None,1000,3,4369385,334,147.285
J,9,4223380,sinestep7.wav,None,1000,3,4371385,334,149.285
J,9,4223380,vowelstep5.wav,None,1000,3,4373385,332,151.285
J,9,4223380,silence.wav,None,1000,3,4375386,314,153.285
J,9,4223380,sinestep1.wav,None,1000,3,4377385,323,155.285
J,9,4223380,sinestep3.wav,None,1000,3,4379385,344,157.285
J,9,4223380,silence.wav,None,1000,3,4381385,323,159.285
J,9,4223380,sinestep1.wav,None,1000,3,4383385,333,161.285
J,9,4223380,vowelstep7.wav,None,1000,3,4385385,334,163.285
J,9,4223380,vowelstep7.wav,None,1000,3,4387385,332,165.285
J,9,4223380,sinestep1_catch.wav,1,96,3,4389385,337,167.285
J,9,4223380,vowelstep1_catch.wav,1,556,3,4391385,1246,169.285
J,9,4223380,vowelstep1.wav,None,1000,3,4393386,786,171.285
J,9,4223380,vowelstep7.wav,None,1000,3,4395386,352,173.285
J,9,4223380,sinestep1.wav,None,1000,3,4397386,331,175.285
J,9,4223380,vowelstep5.wav,None,1000,3,4399386,333,177.285
J,9,4223380,vowelstep5.wav,None,1000,3,4401385,331,179.285
J,9,4223380,sinestep5.wav,None,1000,3,4403385,342,181.285
J,9,4223380,sinestep7.wav,None,1000,3,4405385,344,183.285
J,9,4223380,sinestep7.wav,None,1000,3,4407385,343,185.285
J,9,4223380,sinestep1.wav,None,1000,3,4409385,353,187.285
J,9,4223380,vowelstep1.wav,None,1000,3,4411386,331,189.285
J,9,4223380,silence.wav,None,1000,3,4413386,331,191.285
J,9,4223380,sinestep5.wav,None,1000,3,4415386,332,193.285
J,9,4223380,vowelstep5.wav,None,1000,3,4417386,341,195.285
J,9,4223380,vowelstep1.wav,None,1000,3,4419386,341,197.285
J,9,4223380,vowelstep1.wav,None,1000,3,4421386,341,199.285
J,9,4223380,sinestep3.wav,None,1000,3,4423386,352,201.285
J,9,4223380,sinestep3.wav,None,1000,3,4425385,331,203.285
J,9,4223380,silence.wav,None,1000,3,4427386,330,205.285
J,9,4223380,sinestep5.wav,None,1000,3,4429386,331,207.285
J,9,4223380,vowelstep1.wav,None,1000,3,4431386,341,209.285
J,9,4223380,vowelstep5.wav,None,1000,3,4433386,340,211.285
J,9,4223380,vowelstep3.wav,None,1000,3,4435386,336,213.285
J,9,4223380,vowelstep3.wav,None,1000,3,4437386,350,215.285
J,9,4223380,silence.wav,None,1000,3,4439386,331,217.285
J,9,4223380,sinestep1.wav,None,1000,3,4441386,330,219.285
J,9,4223380,vowelstep3.wav,None,1000,3,4443386,331,221.285
J,9,4223380,sinestep7.wav,None,1000,3,4445387,338,223.285
J,9,4223380,vowelstep7.wav,None,1000,3,4447387,339,225.285
J,9,4223380,silence.wav,None,1000,3,4449386,339,227.285
J,9,4223380,vowelstep5.wav,None,1000,3,4451386,349,229.285
J,9,4223380,silence.wav,None,1000,3,4453386,329,231.285
J,9,4223380,sinestep3.wav,None,1000,3,4455386,329,233.285
J,9,4223380,vowelstep5.wav,None,1000,3,4457386,330,235.285
J,9,4223380,vowelstep3.wav,None,1000,3,4459386,339,237.285
J,9,4223380,vowelstep5.wav,None,1000,3,4461386,339,239.285
J,9,4223380,vowelstep7.wav,None,1000,3,4463387,339,241.285
J,9,4223380,vowelstep1.wav,None,1000,3,4465387,338,243.285
J,9,4223380,sinestep7.wav,None,1000,3,4467387,317,245.285
J,9,4223380,sinestep7.wav,None,1000,3,4469387,330,247.285
J,9,4223380,silence.wav,None,1000,3,4471387,328,249.285
J,9,4223380,vowelstep1.wav,None,1000,3,4473386,328,251.285
J,9,4223380,vowelstep3_catch.wav,1,336,3,4475386,338,253.285
J,9,4223380,vowelstep1.wav,None,1000,3,4477386,1002,255.285
J,9,4223380,vowelstep5_catch.wav,1,316,3,4479386,337,257.285
J,9,4223380,silence.wav,None,1000,3,4481387,1012,259.285
J,9,4223380,sinestep5.wav,None,1000,3,4483387,326,261.285
J,9,4223380,vowelstep1.wav,None,1000,3,4485387,327,263.285
J,9,4223380,sinestep5.wav,None,1000,3,4487387,337,265.285
J,9,4223380,vowelstep3.wav,None,1000,3,4489387,337,267.285
J,9,4223380,sinestep5.wav,None,1000,3,4491387,338,269.285
J,9,4223380,sinestep7.wav,None,1000,3,4493387,337,271.285
J,9,4223380,silence.wav,None,1000,3,4495387,327,273.285
J,9,4223380,vowelstep7_catch.wav,1,247,3,4497387,326,275.285
J,9,4223380,sinestep3.wav,None,1000,3,4499387,1079,277.285
J,9,4223380,vowelstep5.wav,None,1000,3,4501387,323,279.285
J,9,4223380,silence.wav,None,1000,3,4503387,337,281.285
J,9,4223380,silence.wav,None,1000,3,4505387,331,283.285
J,9,4223380,silence.wav,None,1000,3,4507387,337,285.285
J,9,4223380,vowelstep7.wav,None,1000,3,4509387,327,287.285
J,9,4223380,sinestep3.wav,None,1000,3,4511387,326,289.285
J,9,4223380,vowelstep5_catch.wav,1,247,3,4513387,327,291.285
J,9,4223380,silence.wav,None,1000,3,4515388,1078,293.285
J,9,4223380,sinestep7.wav,None,1000,3,4517388,332,295.285
J,9,4223380,vowelstep1.wav,None,1000,3,4519388,332,297.285
J,9,4223380,silence.wav,None,1000,3,4521387,334,299.285
J,9,4223380,sinestep1.wav,None,1000,3,4523387,314,301.285
J,9,4223380,sinestep5.wav,None,1000,3,4525387,325,303.285
J,9,4223380,vowelstep5.wav,None,1000,3,4527387,325,305.285
J,9,4223380,vowelstep3.wav,None,1000,3,4529387,325,307.285
J,9,4223380,sinestep7.wav,None,1000,3,4531387,335,309.285
J,9,4223380,vowelstep7.wav,None,1000,3,4533388,335,311.285
J,9,4223380,vowelstep3_catch.wav,1,520,3,4535388,334,313.285
J,9,4223380,vowelstep1_catch.wav,1,504,3,4537388,823,315.285
J,9,4223380,sinestep3.wav,None,1000,3,4539388,820,317.285
J,9,4223380,sinestep1.wav,None,1000,3,4541388,319,319.285